RT,acc_spd,accuracy,angle,block,coherence,dataset,id,left_right,subj_idx,tdcs,trial_NR
799,spd,1,180,1,0.4171,berkeley,S1.1,2,1,sham,1
613,spd,1,180,1,0.4171,berkeley,S1.1,2,1,sham,2
627,spd,1,180,1,0.4171,berkeley,S1.1,1,1,sham,3
1280,acc,0,180,1,0.4171,berkeley,S1.1,1,1,sham,4
800,spd,1,180,1,0.4171,berkeley,S1.1,2,1,sham,5
760,acc,1,180,1,0.4171,berkeley,S1.1,2,1,sham,6
719,acc,0,180,1,0.4171,berkeley,S1.1,1,1,sham,7
799,spd,0,180,1,0.4171,berkeley,S1.1,1,1,sham,8
520,spd,1,180,1,0.4171,berkeley,S1.1,1,1,sham,9
1066,acc,1,180,1,0.4171,berkeley,S1.1,1,1,sham,10
480,spd,1,180,1,0.4171,berkeley,S1.1,2,1,sham,11
627,spd,1,180,1,0.4171,berkeley,S1.1,2,1,sham,12
467,spd,1,180,1,0.4171,berkeley,S1.1,2,1,sham,13
560,spd,0,180,1,0.4171,berkeley,S1.1,1,1,sham,14
867,acc,1,180,1,0.4171,berkeley,S1.1,2,1,sham,15
733,spd,1,180,1,0.4171,berkeley,S1.1,1,1,sham,16
759,acc,1,180,1,0.4171,berkeley,S1.1,1,1,sham,17
600,acc,1,180,1,0.4171,berkeley,S1.1,2,1,sham,18
706,acc,1,180,1,0.4171,berkeley,S1.1,2,1,sham,19
653,spd,1,180,1,0.4171,berkeley,S1.1,1,1,sham,20
439,spd,1,180,1,0.4171,berkeley,S1.1,2,1,sham,21
533,spd,1,180,1,0.4171,berkeley,S1.1,2,1,sham,22
587,spd,1,180,1,0.4171,berkeley,S1.1,1,1,sham,23
787,acc,1,180,1,0.4171,berkeley,S1.1,1,1,sham,24
640,spd,1,180,1,0.4171,berkeley,S1.1,1,1,sham,25
520,spd,0,180,1,0.4171,berkeley,S1.1,1,1,sham,26
639,spd,1,180,1,0.4171,berkeley,S1.1,2,1,sham,27
760,acc,0,180,1,0.4171,berkeley,S1.1,2,1,sham,28
813,spd,1,180,1,0.4171,berkeley,S1.1,2,1,sham,29
666,acc,1,180,1,0.4171,berkeley,S1.1,1,1,sham,30
600,spd,1,180,1,0.4171,berkeley,S1.1,2,1,sham,31
733,spd,1,180,1,0.4171,berkeley,S1.1,1,1,sham,32
667,acc,1,180,1,0.4171,berkeley,S1.1,1,1,sham,33
533,acc,1,180,1,0.4171,berkeley,S1.1,2,1,sham,34
639,spd,1,180,1,0.4171,berkeley,S1.1,2,1,sham,35
866,acc,1,180,1,0.4171,berkeley,S1.1,1,1,sham,36
639,acc,1,180,1,0.4171,berkeley,S1.1,2,1,sham,37
586,spd,1,180,1,0.4171,berkeley,S1.1,2,1,sham,38
653,acc,1,180,1,0.4171,berkeley,S1.1,1,1,sham,39
653,acc,1,180,1,0.4171,berkeley,S1.1,1,1,sham,40
680,acc,1,180,1,0.4171,berkeley,S1.1,1,1,sham,41
547,acc,1,180,1,0.4171,berkeley,S1.1,2,1,sham,42
627,spd,1,180,1,0.4171,berkeley,S1.1,2,1,sham,43
680,spd,1,180,1,0.4171,berkeley,S1.1,1,1,sham,44
587,spd,1,180,1,0.4171,berkeley,S1.1,1,1,sham,45
560,spd,1,180,1,0.4171,berkeley,S1.1,2,1,sham,46
467,spd,1,180,1,0.4171,berkeley,S1.1,1,1,sham,47
640,acc,1,180,1,0.4171,berkeley,S1.1,2,1,sham,48
586,spd,1,180,1,0.4171,berkeley,S1.1,2,1,sham,49
599,spd,1,180,1,0.4171,berkeley,S1.1,2,1,sham,50
613,spd,1,180,1,0.4171,berkeley,S1.1,1,1,sham,51
693,spd,1,180,1,0.4171,berkeley,S1.1,1,1,sham,52
560,acc,1,180,1,0.4171,berkeley,S1.1,2,1,sham,53
547,spd,1,180,1,0.4171,berkeley,S1.1,1,1,sham,54
600,acc,1,180,1,0.4171,berkeley,S1.1,1,1,sham,55
520,acc,1,180,1,0.4171,berkeley,S1.1,2,1,sham,56
519,spd,1,180,1,0.4171,berkeley,S1.1,2,1,sham,57
586,acc,1,180,1,0.4171,berkeley,S1.1,1,1,sham,58
520,acc,1,180,1,0.4171,berkeley,S1.1,2,1,sham,59
600,acc,1,180,1,0.4171,berkeley,S1.1,1,1,sham,60
600,acc,1,180,1,0.4171,berkeley,S1.1,1,1,sham,61
546,acc,1,180,1,0.4171,berkeley,S1.1,1,1,sham,62
493,spd,1,180,1,0.4171,berkeley,S1.1,2,1,sham,63
493,acc,1,180,1,0.4171,berkeley,S1.1,2,1,sham,64
546,spd,1,180,1,0.4171,berkeley,S1.1,2,1,sham,65
586,acc,1,180,1,0.4171,berkeley,S1.1,2,1,sham,66
506,spd,1,180,1,0.4171,berkeley,S1.1,1,1,sham,67
639,acc,1,180,1,0.4171,berkeley,S1.1,1,1,sham,68
520,spd,1,180,1,0.4171,berkeley,S1.1,1,1,sham,69
547,spd,1,180,1,0.4171,berkeley,S1.1,1,1,sham,70
493,acc,1,180,1,0.4171,berkeley,S1.1,2,1,sham,71
519,spd,1,180,1,0.4171,berkeley,S1.1,2,1,sham,72
600,spd,1,180,1,0.4171,berkeley,S1.1,1,1,sham,73
547,spd,1,180,1,0.4171,berkeley,S1.1,2,1,sham,74
573,spd,1,180,1,0.4171,berkeley,S1.1,2,1,sham,75
453,spd,1,180,1,0.4171,berkeley,S1.1,1,1,sham,76
493,acc,1,180,1,0.4171,berkeley,S1.1,2,1,sham,77
440,spd,1,180,1,0.4171,berkeley,S1.1,1,1,sham,78
533,spd,1,180,1,0.4171,berkeley,S1.1,2,1,sham,79
546,acc,1,180,1,0.4171,berkeley,S1.1,1,1,sham,80
480,spd,1,180,1,0.4171,berkeley,S1.1,1,1,sham,81
493,spd,1,180,1,0.4171,berkeley,S1.1,1,1,sham,82
453,spd,1,180,1,0.4171,berkeley,S1.1,2,1,sham,83
414,spd,1,180,1,0.4171,berkeley,S1.1,2,1,sham,84
693,acc,1,180,1,0.4171,berkeley,S1.1,2,1,sham,85
506,spd,1,180,1,0.4171,berkeley,S1.1,2,1,sham,86
559,spd,1,180,1,0.4171,berkeley,S1.1,1,1,sham,87
586,acc,1,180,1,0.4171,berkeley,S1.1,1,1,sham,88
546,acc,1,180,1,0.4171,berkeley,S1.1,2,1,sham,89
533,acc,1,180,1,0.4171,berkeley,S1.1,1,1,sham,90
480,spd,1,180,1,0.4171,berkeley,S1.1,2,1,sham,91
439,spd,1,180,1,0.4171,berkeley,S1.1,1,1,sham,92
480,acc,1,180,1,0.4171,berkeley,S1.1,2,1,sham,93
507,acc,1,180,1,0.4171,berkeley,S1.1,2,1,sham,94
467,acc,1,180,1,0.4171,berkeley,S1.1,1,1,sham,95
480,acc,1,180,1,0.4171,berkeley,S1.1,1,1,sham,96
520,spd,1,180,1,0.4171,berkeley,S1.1,1,1,sham,97
519,spd,1,180,1,0.4171,berkeley,S1.1,2,1,sham,98
640,spd,1,180,1,0.4171,berkeley,S1.1,2,1,sham,99
467,acc,1,180,1,0.4171,berkeley,S1.1,1,1,sham,100
813,spd,1,180,1,0.4171,berkeley,S1.1,1,1,sham,101
546,spd,1,180,1,0.4171,berkeley,S1.1,2,1,sham,102
453,acc,1,180,1,0.4171,berkeley,S1.1,1,1,sham,103
427,spd,1,180,1,0.4171,berkeley,S1.1,2,1,sham,104
507,spd,1,180,1,0.4171,berkeley,S1.1,2,1,sham,105
427,spd,1,180,1,0.4171,berkeley,S1.1,1,1,sham,106
400,spd,1,180,1,0.4171,berkeley,S1.1,2,1,sham,107
453,spd,1,180,1,0.4171,berkeley,S1.1,1,1,sham,108
520,spd,1,180,1,0.4171,berkeley,S1.1,1,1,sham,109
574,acc,1,180,1,0.4171,berkeley,S1.1,2,1,sham,110
626,acc,1,180,1,0.4171,berkeley,S1.1,2,1,sham,111
493,acc,1,180,1,0.4171,berkeley,S1.1,1,1,sham,112
546,spd,1,180,1,0.4171,berkeley,S1.1,1,1,sham,113
559,acc,1,180,1,0.4171,berkeley,S1.1,2,1,sham,114
573,acc,1,180,1,0.4171,berkeley,S1.1,2,1,sham,115
507,acc,1,180,1,0.4171,berkeley,S1.1,1,1,sham,116
667,acc,1,180,1,0.4171,berkeley,S1.1,1,1,sham,117
520,spd,1,180,1,0.4171,berkeley,S1.1,2,1,sham,118
614,acc,1,180,1,0.4171,berkeley,S1.1,1,1,sham,119
480,spd,1,180,1,0.4171,berkeley,S1.1,2,1,sham,120
453,acc,1,180,1,0.4171,berkeley,S1.1,1,1,sham,121
453,spd,1,180,1,0.4171,berkeley,S1.1,2,1,sham,122
493,spd,1,180,1,0.4171,berkeley,S1.1,2,1,sham,123
453,acc,1,180,1,0.4171,berkeley,S1.1,1,1,sham,124
520,acc,1,180,1,0.4171,berkeley,S1.1,2,1,sham,125
720,spd,1,180,1,0.4171,berkeley,S1.1,1,1,sham,126
587,acc,1,180,1,0.4171,berkeley,S1.1,1,1,sham,127
480,acc,1,180,1,0.4171,berkeley,S1.1,2,1,sham,128
546,spd,1,180,1,0.4171,berkeley,S1.1,2,1,sham,129
559,acc,1,180,1,0.4171,berkeley,S1.1,1,1,sham,130
573,acc,1,180,1,0.4171,berkeley,S1.1,2,1,sham,131
520,spd,1,180,1,0.4171,berkeley,S1.1,1,1,sham,132
559,acc,1,180,1,0.4171,berkeley,S1.1,1,1,sham,133
520,acc,1,180,1,0.4171,berkeley,S1.1,2,1,sham,134
507,spd,1,180,1,0.4171,berkeley,S1.1,2,1,sham,135
427,spd,1,180,1,0.4171,berkeley,S1.1,1,1,sham,136
467,acc,1,180,1,0.4171,berkeley,S1.1,2,1,sham,137
467,spd,1,180,1,0.4171,berkeley,S1.1,1,1,sham,138
507,acc,1,180,1,0.4171,berkeley,S1.1,2,1,sham,139
480,acc,1,180,1,0.4171,berkeley,S1.1,1,1,sham,140
573,spd,1,180,1,0.4171,berkeley,S1.1,1,1,sham,141
466,spd,1,180,1,0.4171,berkeley,S1.1,1,1,sham,142
480,spd,1,180,1,0.4171,berkeley,S1.1,2,1,sham,143
493,acc,1,180,1,0.4171,berkeley,S1.1,2,1,sham,144
586,acc,1,180,1,0.4171,berkeley,S1.1,2,1,sham,145
559,acc,1,180,1,0.4171,berkeley,S1.1,1,1,sham,146
560,spd,1,180,1,0.4171,berkeley,S1.1,1,1,sham,147
533,spd,1,180,1,0.4171,berkeley,S1.1,2,1,sham,148
506,acc,1,180,1,0.4171,berkeley,S1.1,1,1,sham,149
546,spd,1,180,1,0.4171,berkeley,S1.1,2,1,sham,150
639,spd,1,180,1,0.4171,berkeley,S1.1,1,1,sham,151
480,spd,1,180,1,0.4171,berkeley,S1.1,2,1,sham,152
453,spd,1,180,1,0.4171,berkeley,S1.1,1,1,sham,153
506,acc,1,180,1,0.4171,berkeley,S1.1,2,1,sham,154
773,spd,1,180,1,0.4171,berkeley,S1.1,1,1,sham,155
533,acc,1,180,1,0.4171,berkeley,S1.1,2,1,sham,156
546,spd,1,180,1,0.4171,berkeley,S1.1,2,1,sham,157
506,acc,1,180,1,0.4171,berkeley,S1.1,1,1,sham,158
466,spd,1,180,1,0.4171,berkeley,S1.1,2,1,sham,159
426,spd,1,180,1,0.4171,berkeley,S1.1,1,1,sham,160
493,acc,1,180,1,0.4171,berkeley,S1.1,1,1,sham,161
480,acc,1,180,1,0.4171,berkeley,S1.1,2,1,sham,162
480,acc,1,180,1,0.4171,berkeley,S1.1,1,1,sham,163
480,spd,1,180,1,0.4171,berkeley,S1.1,2,1,sham,164
440,acc,1,180,1,0.4171,berkeley,S1.1,1,1,sham,165
479,acc,1,180,1,0.4171,berkeley,S1.1,2,1,sham,166
800,acc,1,180,1,0.4171,berkeley,S1.1,2,1,sham,167
493,acc,1,180,1,0.4171,berkeley,S1.1,1,1,sham,168
466,acc,1,180,1,0.4171,berkeley,S1.1,2,1,sham,169
453,spd,1,180,1,0.4171,berkeley,S1.1,1,1,sham,170
520,spd,1,180,1,0.4171,berkeley,S1.1,2,1,sham,171
559,acc,1,180,1,0.4171,berkeley,S1.1,1,1,sham,172
613,acc,1,180,1,0.4171,berkeley,S1.1,2,1,sham,173
533,spd,1,180,1,0.4171,berkeley,S1.1,2,1,sham,174
507,spd,1,180,1,0.4171,berkeley,S1.1,1,1,sham,175
560,spd,1,180,1,0.4171,berkeley,S1.1,1,1,sham,176
520,spd,1,180,1,0.4171,berkeley,S1.1,2,1,sham,177
533,spd,1,180,1,0.4171,berkeley,S1.1,2,1,sham,178
493,spd,1,180,1,0.4171,berkeley,S1.1,1,1,sham,179
546,acc,1,180,1,0.4171,berkeley,S1.1,1,1,sham,180
533,acc,1,180,1,0.4171,berkeley,S1.1,2,1,sham,181
467,spd,1,180,1,0.4171,berkeley,S1.1,2,1,sham,182
533,acc,1,180,1,0.4171,berkeley,S1.1,1,1,sham,183
480,spd,1,180,1,0.4171,berkeley,S1.1,1,1,sham,184
467,spd,1,180,1,0.4171,berkeley,S1.1,1,1,sham,185
480,spd,1,180,1,0.4171,berkeley,S1.1,1,1,sham,186
533,acc,1,180,1,0.4171,berkeley,S1.1,2,1,sham,187
560,acc,1,180,1,0.4171,berkeley,S1.1,2,1,sham,188
533,acc,1,180,1,0.4171,berkeley,S1.1,2,1,sham,189
480,spd,1,180,1,0.4171,berkeley,S1.1,1,1,sham,190
547,acc,1,180,1,0.4171,berkeley,S1.1,2,1,sham,191
480,acc,1,180,1,0.4171,berkeley,S1.1,1,1,sham,192
479,spd,1,180,1,0.4171,berkeley,S1.1,2,1,sham,193
573,spd,1,180,1,0.4171,berkeley,S1.1,2,1,sham,194
494,acc,1,180,1,0.4171,berkeley,S1.1,1,1,sham,195
493,acc,1,180,1,0.4171,berkeley,S1.1,1,1,sham,196
599,spd,1,180,1,0.4171,berkeley,S1.1,1,1,sham,197
600,acc,1,180,1,0.4171,berkeley,S1.1,2,1,sham,198
587,spd,1,180,1,0.4171,berkeley,S1.1,1,1,sham,199
653,acc,1,180,1,0.4171,berkeley,S1.1,2,1,sham,200
693,spd,1,180,1,0.4171,berkeley,S1.1,2,1,sham,201
946,spd,1,180,1,0.4171,berkeley,S1.1,2,1,sham,202
773,spd,1,180,1,0.4171,berkeley,S1.1,1,1,sham,203
600,spd,1,180,1,0.4171,berkeley,S1.1,1,1,sham,204
759,spd,1,180,1,0.4171,berkeley,S1.1,2,1,sham,205
866,acc,1,180,1,0.4171,berkeley,S1.1,2,1,sham,206
586,spd,1,180,1,0.4171,berkeley,S1.1,1,1,sham,207
559,acc,1,180,1,0.4171,berkeley,S1.1,1,1,sham,208
666,acc,1,180,1,0.4171,berkeley,S1.1,2,1,sham,209
559,spd,1,180,1,0.4171,berkeley,S1.1,1,1,sham,210
586,spd,1,180,1,0.4171,berkeley,S1.1,2,1,sham,211
560,spd,1,180,1,0.4171,berkeley,S1.1,1,1,sham,212
613,acc,1,180,1,0.4171,berkeley,S1.1,1,1,sham,213
533,acc,1,180,1,0.4171,berkeley,S1.1,2,1,sham,214
613,spd,1,180,1,0.4171,berkeley,S1.1,2,1,sham,215
493,spd,1,180,1,0.4171,berkeley,S1.1,1,1,sham,216
719,acc,1,180,1,0.4171,berkeley,S1.1,1,1,sham,217
599,acc,1,180,1,0.4171,berkeley,S1.1,2,1,sham,218
533,acc,1,180,1,0.4171,berkeley,S1.1,1,1,sham,219
586,acc,1,180,1,0.4171,berkeley,S1.1,2,1,sham,220
600,acc,1,180,1,0.4171,berkeley,S1.1,2,1,sham,221
533,spd,1,180,1,0.4171,berkeley,S1.1,2,1,sham,222
587,acc,1,180,1,0.4171,berkeley,S1.1,1,1,sham,223
573,acc,1,180,1,0.4171,berkeley,S1.1,1,1,sham,224
746,spd,1,180,1,0.4171,berkeley,S1.1,1,1,sham,225
626,acc,1,180,1,0.4171,berkeley,S1.1,1,1,sham,226
586,acc,1,180,1,0.4171,berkeley,S1.1,2,1,sham,227
546,spd,1,180,1,0.4171,berkeley,S1.1,2,1,sham,228
467,spd,1,180,1,0.4171,berkeley,S1.1,1,1,sham,229
547,spd,1,180,1,0.4171,berkeley,S1.1,1,1,sham,230
507,spd,1,180,1,0.4171,berkeley,S1.1,2,1,sham,231
840,acc,1,180,1,0.4171,berkeley,S1.1,2,1,sham,232
574,spd,1,180,1,0.4171,berkeley,S1.1,2,1,sham,233
640,acc,1,180,1,0.4171,berkeley,S1.1,2,1,sham,234
520,acc,1,180,1,0.4171,berkeley,S1.1,1,1,sham,235
533,spd,1,180,1,0.4171,berkeley,S1.1,1,1,sham,236
573,spd,1,180,1,0.4171,berkeley,S1.1,1,1,sham,237
480,spd,1,180,1,0.4171,berkeley,S1.1,2,1,sham,238
573,acc,1,180,1,0.4171,berkeley,S1.1,1,1,sham,239
506,acc,1,180,1,0.4171,berkeley,S1.1,2,1,sham,240
533,acc,1,180,1,0.4171,berkeley,S1.1,1,1,sham,241
440,acc,1,180,1,0.4171,berkeley,S1.1,2,1,sham,242
839,spd,1,180,1,0.4171,berkeley,S1.1,2,1,sham,243
586,spd,1,180,1,0.4171,berkeley,S1.1,1,1,sham,244
533,acc,1,180,1,0.4171,berkeley,S1.1,2,1,sham,245
533,acc,1,180,1,0.4171,berkeley,S1.1,1,1,sham,246
560,spd,1,180,1,0.4171,berkeley,S1.1,2,1,sham,247
440,spd,1,180,1,0.4171,berkeley,S1.1,1,1,sham,248
414,acc,1,180,1,0.4171,berkeley,S1.1,2,1,sham,249
480,spd,1,180,1,0.4171,berkeley,S1.1,1,1,sham,250
613,acc,1,180,1,0.4171,berkeley,S1.1,1,1,sham,251
546,spd,1,180,1,0.4171,berkeley,S1.1,2,1,sham,252
640,acc,1,180,1,0.4171,berkeley,S1.1,2,1,sham,253
533,spd,1,180,1,0.4171,berkeley,S1.1,1,1,sham,254
613,acc,1,180,1,0.4171,berkeley,S1.1,2,1,sham,255
533,acc,1,180,1,0.4171,berkeley,S1.1,1,1,sham,256
586,spd,1,180,1,0.4171,berkeley,S1.1,1,1,sham,257
533,spd,1,180,1,0.4171,berkeley,S1.1,2,1,sham,258
587,acc,1,180,1,0.4171,berkeley,S1.1,2,1,sham,259
560,acc,1,180,1,0.4171,berkeley,S1.1,1,1,sham,260
559,spd,1,180,1,0.4171,berkeley,S1.1,1,1,sham,261
546,spd,1,180,1,0.4171,berkeley,S1.1,2,1,sham,262
546,acc,1,180,1,0.4171,berkeley,S1.1,1,1,sham,263
493,spd,1,180,1,0.4171,berkeley,S1.1,2,1,sham,264
573,acc,1,180,1,0.4171,berkeley,S1.1,2,1,sham,265
426,spd,1,180,1,0.4171,berkeley,S1.1,1,1,sham,266
546,acc,1,180,1,0.4171,berkeley,S1.1,2,1,sham,267
453,spd,1,180,1,0.4171,berkeley,S1.1,1,1,sham,268
560,acc,1,180,1,0.4171,berkeley,S1.1,2,1,sham,269
546,acc,1,180,1,0.4171,berkeley,S1.1,1,1,sham,270
613,spd,1,180,1,0.4171,berkeley,S1.1,1,1,sham,271
507,acc,1,180,1,0.4171,berkeley,S1.1,2,1,sham,272
533,acc,1,180,1,0.4171,berkeley,S1.1,1,1,sham,273
520,spd,1,180,1,0.4171,berkeley,S1.1,2,1,sham,274
507,spd,1,180,1,0.4171,berkeley,S1.1,2,1,sham,275
493,spd,1,180,1,0.4171,berkeley,S1.1,1,1,sham,276
519,acc,1,180,1,0.4171,berkeley,S1.1,2,1,sham,277
466,acc,1,180,1,0.4171,berkeley,S1.1,1,1,sham,278
520,acc,1,180,1,0.4171,berkeley,S1.1,1,1,sham,279
507,acc,1,180,1,0.4171,berkeley,S1.1,2,1,sham,280
400,acc,1,180,1,0.4171,berkeley,S1.1,1,1,sham,281
519,acc,1,180,1,0.4171,berkeley,S1.1,2,1,sham,282
453,spd,1,180,1,0.4171,berkeley,S1.1,1,1,sham,283
454,spd,1,180,1,0.4171,berkeley,S1.1,2,1,sham,284
480,spd,1,180,1,0.4171,berkeley,S1.1,1,1,sham,285
480,spd,1,180,1,0.4171,berkeley,S1.1,2,1,sham,286
479,spd,1,180,1,0.4171,berkeley,S1.1,1,1,sham,287
453,acc,1,180,1,0.4171,berkeley,S1.1,2,1,sham,288
546,acc,1,180,1,0.4171,berkeley,S1.1,2,1,sham,289
479,spd,1,180,1,0.4171,berkeley,S1.1,2,1,sham,290
453,acc,1,180,1,0.4171,berkeley,S1.1,1,1,sham,291
520,acc,1,180,1,0.4171,berkeley,S1.1,1,1,sham,292
506,acc,1,180,1,0.4171,berkeley,S1.1,2,1,sham,293
586,spd,1,180,1,0.4171,berkeley,S1.1,1,1,sham,294
573,acc,1,180,1,0.4171,berkeley,S1.1,1,1,sham,295
520,acc,1,180,1,0.4171,berkeley,S1.1,2,1,sham,296
546,spd,1,180,1,0.4171,berkeley,S1.1,2,1,sham,297
467,acc,1,180,1,0.4171,berkeley,S1.1,1,1,sham,298
454,spd,1,180,1,0.4171,berkeley,S1.1,1,1,sham,299
467,acc,1,180,1,0.4171,berkeley,S1.1,2,1,sham,300
493,acc,1,180,1,0.4171,berkeley,S1.1,1,1,sham,301
453,acc,1,180,1,0.4171,berkeley,S1.1,2,1,sham,302
507,spd,1,180,1,0.4171,berkeley,S1.1,2,1,sham,303
440,spd,1,180,1,0.4171,berkeley,S1.1,1,1,sham,304
559,acc,1,180,1,0.4171,berkeley,S1.1,1,1,sham,305
493,spd,1,180,1,0.4171,berkeley,S1.1,2,1,sham,306
467,spd,1,180,1,0.4171,berkeley,S1.1,1,1,sham,307
440,spd,1,180,1,0.4171,berkeley,S1.1,2,1,sham,308
466,spd,1,180,1,0.4171,berkeley,S1.1,2,1,sham,309
586,acc,1,180,1,0.4171,berkeley,S1.1,2,1,sham,310
479,spd,1,180,1,0.4171,berkeley,S1.1,1,1,sham,311
493,spd,1,180,1,0.4171,berkeley,S1.1,1,1,sham,312
466,spd,1,180,1,0.4171,berkeley,S1.1,1,1,sham,313
493,acc,1,180,1,0.4171,berkeley,S1.1,1,1,sham,314
453,acc,1,180,1,0.4171,berkeley,S1.1,2,1,sham,315
493,acc,1,180,1,0.4171,berkeley,S1.1,2,1,sham,316
653,spd,1,180,1,0.4171,berkeley,S1.1,2,1,sham,317
586,acc,1,180,1,0.4171,berkeley,S1.1,2,1,sham,318
533,acc,1,180,1,0.4171,berkeley,S1.1,1,1,sham,319
747,spd,0,180,1,0.4171,berkeley,S1.1,1,1,sham,320
640,acc,1,180,1,0.4171,berkeley,S1.1,2,1,sham,321
666,acc,1,180,1,0.4171,berkeley,S1.1,1,1,sham,322
507,spd,1,180,1,0.4171,berkeley,S1.1,2,1,sham,323
493,spd,1,180,1,0.4171,berkeley,S1.1,1,1,sham,324
520,acc,1,180,1,0.4171,berkeley,S1.1,2,1,sham,325
760,acc,1,180,1,0.4171,berkeley,S1.1,1,1,sham,326
614,spd,1,180,1,0.4171,berkeley,S1.1,2,1,sham,327
613,spd,1,180,1,0.4171,berkeley,S1.1,1,1,sham,328
479,acc,1,180,1,0.4171,berkeley,S1.1,2,1,sham,329
573,acc,1,180,1,0.4171,berkeley,S1.1,2,1,sham,330
559,spd,1,180,1,0.4171,berkeley,S1.1,1,1,sham,331
546,spd,1,180,1,0.4171,berkeley,S1.1,1,1,sham,332
533,acc,1,180,1,0.4171,berkeley,S1.1,1,1,sham,333
520,spd,1,180,1,0.4171,berkeley,S1.1,2,1,sham,334
533,spd,1,180,1,0.4171,berkeley,S1.1,2,1,sham,335
613,acc,1,180,1,0.4171,berkeley,S1.1,1,1,sham,336
560,acc,1,180,1,0.4171,berkeley,S1.1,1,1,sham,337
586,spd,1,180,1,0.4171,berkeley,S1.1,1,1,sham,338
600,acc,1,180,1,0.4171,berkeley,S1.1,2,1,sham,339
533,spd,1,180,1,0.4171,berkeley,S1.1,2,1,sham,340
586,spd,1,180,1,0.4171,berkeley,S1.1,2,1,sham,341
586,spd,1,180,1,0.4171,berkeley,S1.1,1,1,sham,342
573,spd,1,180,1,0.4171,berkeley,S1.1,2,1,sham,343
560,spd,1,180,1,0.4171,berkeley,S1.1,1,1,sham,344
546,acc,1,180,1,0.4171,berkeley,S1.1,2,1,sham,345
627,spd,1,180,1,0.4171,berkeley,S1.1,1,1,sham,346
520,spd,1,180,1,0.4171,berkeley,S1.1,1,1,sham,347
639,acc,1,180,1,0.4171,berkeley,S1.1,2,1,sham,348
546,spd,1,180,1,0.4171,berkeley,S1.1,1,1,sham,349
533,spd,1,180,1,0.4171,berkeley,S1.1,2,1,sham,350
533,acc,1,180,1,0.4171,berkeley,S1.1,1,1,sham,351
466,acc,1,180,1,0.4171,berkeley,S1.1,2,1,sham,352
520,acc,1,180,1,0.4171,berkeley,S1.1,1,1,sham,353
587,acc,1,180,1,0.4171,berkeley,S1.1,1,1,sham,354
520,acc,1,180,1,0.4171,berkeley,S1.1,2,1,sham,355
507,spd,1,180,1,0.4171,berkeley,S1.1,2,1,sham,356
853,acc,1,180,1,0.4171,berkeley,S1.1,2,1,sham,357
560,spd,1,180,1,0.4171,berkeley,S1.1,1,1,sham,358
653,spd,1,180,1,0.4171,berkeley,S1.1,1,1,sham,359
559,spd,1,180,1,0.4171,berkeley,S1.1,2,1,sham,360
520,spd,1,180,1,0.4171,berkeley,S1.1,2,1,sham,361
507,acc,1,180,1,0.4171,berkeley,S1.1,1,1,sham,362
640,acc,1,180,1,0.4171,berkeley,S1.1,1,1,sham,363
507,acc,1,180,1,0.4171,berkeley,S1.1,2,1,sham,364
667,spd,1,180,1,0.4171,berkeley,S1.1,1,1,sham,365
627,acc,1,180,1,0.4171,berkeley,S1.1,1,1,sham,366
587,spd,1,180,1,0.4171,berkeley,S1.1,2,1,sham,367
480,acc,1,180,1,0.4171,berkeley,S1.1,2,1,sham,368
520,acc,1,180,1,0.4171,berkeley,S1.1,2,1,sham,369
666,spd,1,180,1,0.4171,berkeley,S1.1,1,1,sham,370
666,spd,1,180,1,0.4171,berkeley,S1.1,1,1,sham,371
547,spd,1,180,1,0.4171,berkeley,S1.1,2,1,sham,372
507,spd,1,180,1,0.4171,berkeley,S1.1,1,1,sham,373
560,spd,1,180,1,0.4171,berkeley,S1.1,2,1,sham,374
519,acc,1,180,1,0.4171,berkeley,S1.1,1,1,sham,375
573,acc,1,180,1,0.4171,berkeley,S1.1,2,1,sham,376
560,acc,1,180,1,0.4171,berkeley,S1.1,2,1,sham,377
493,acc,1,180,1,0.4171,berkeley,S1.1,1,1,sham,378
533,acc,1,180,1,0.4171,berkeley,S1.1,2,1,sham,379
533,spd,1,180,1,0.4171,berkeley,S1.1,1,1,sham,380
559,acc,1,180,1,0.4171,berkeley,S1.1,1,1,sham,381
573,acc,1,180,1,0.4171,berkeley,S1.1,2,1,sham,382
653,acc,1,180,1,0.4171,berkeley,S1.1,2,1,sham,383
600,acc,1,180,1,0.4171,berkeley,S1.1,1,1,sham,384
667,acc,1,180,1,0.4171,berkeley,S1.1,2,1,sham,385
800,acc,1,180,1,0.4171,berkeley,S1.1,2,1,sham,386
493,spd,1,180,1,0.4171,berkeley,S1.1,1,1,sham,387
506,spd,0,180,1,0.4171,berkeley,S1.1,1,1,sham,388
573,spd,1,180,1,0.4171,berkeley,S1.1,1,1,sham,389
493,acc,1,180,1,0.4171,berkeley,S1.1,1,1,sham,390
546,spd,1,180,1,0.4171,berkeley,S1.1,2,1,sham,391
533,spd,1,180,1,0.4171,berkeley,S1.1,2,1,sham,392
546,spd,1,180,1,0.4171,berkeley,S1.1,1,1,sham,393
466,spd,1,180,1,0.4171,berkeley,S1.1,1,1,sham,394
454,spd,1,180,1,0.4171,berkeley,S1.1,2,1,sham,395
680,spd,1,180,1,0.4171,berkeley,S1.1,2,1,sham,396
507,spd,1,180,1,0.4171,berkeley,S1.1,2,1,sham,397
893,acc,1,180,1,0.4171,berkeley,S1.1,1,1,sham,398
679,acc,1,180,1,0.4171,berkeley,S1.1,1,1,sham,399
506,spd,1,180,1,0.4171,berkeley,S1.1,2,1,sham,400
626,acc,1,180,1,0.4171,berkeley,S1.1,1,1,sham,401
533,acc,1,180,1,0.4171,berkeley,S1.1,2,1,sham,402
493,acc,1,180,1,0.4171,berkeley,S1.1,1,1,sham,403
640,acc,1,180,1,0.4171,berkeley,S1.1,2,1,sham,404
720,spd,1,180,1,0.4171,berkeley,S1.1,2,1,sham,405
760,acc,1,180,1,0.4171,berkeley,S1.1,1,1,sham,406
826,acc,1,180,1,0.4171,berkeley,S1.1,1,1,sham,407
520,spd,1,180,1,0.4171,berkeley,S1.1,2,1,sham,408
439,acc,1,180,1,0.4171,berkeley,S1.1,1,1,sham,409
546,acc,1,180,1,0.4171,berkeley,S1.1,2,1,sham,410
586,spd,1,180,1,0.4171,berkeley,S1.1,2,1,sham,411
493,spd,1,180,1,0.4171,berkeley,S1.1,1,1,sham,412
493,acc,1,180,1,0.4171,berkeley,S1.1,2,1,sham,413
613,acc,1,180,1,0.4171,berkeley,S1.1,1,1,sham,414
586,spd,1,180,1,0.4171,berkeley,S1.1,1,1,sham,415
493,spd,1,180,1,0.4171,berkeley,S1.1,2,1,sham,416
467,acc,1,180,1,0.4171,berkeley,S1.1,1,1,sham,417
533,acc,1,180,1,0.4171,berkeley,S1.1,2,1,sham,418
826,acc,0,180,1,0.4171,berkeley,S1.1,2,1,sham,419
533,spd,1,180,1,0.4171,berkeley,S1.1,1,1,sham,420
547,acc,1,180,1,0.4171,berkeley,S1.1,1,1,sham,421
573,spd,1,180,1,0.4171,berkeley,S1.1,2,1,sham,422
480,spd,1,180,1,0.4171,berkeley,S1.1,1,1,sham,423
586,acc,1,180,1,0.4171,berkeley,S1.1,2,1,sham,424
533,acc,1,180,1,0.4171,berkeley,S1.1,1,1,sham,425
639,acc,1,180,1,0.4171,berkeley,S1.1,2,1,sham,426
573,spd,1,180,1,0.4171,berkeley,S1.1,1,1,sham,427
533,acc,1,180,1,0.4171,berkeley,S1.1,2,1,sham,428
520,spd,1,180,1,0.4171,berkeley,S1.1,1,1,sham,429
493,acc,1,180,1,0.4171,berkeley,S1.1,2,1,sham,430
613,acc,1,180,1,0.4171,berkeley,S1.1,2,1,sham,431
574,acc,1,180,1,0.4171,berkeley,S1.1,1,1,sham,432
560,spd,1,180,1,0.4171,berkeley,S1.1,1,1,sham,433
533,acc,1,180,1,0.4171,berkeley,S1.1,2,1,sham,434
480,acc,1,180,1,0.4171,berkeley,S1.1,1,1,sham,435
533,spd,1,180,1,0.4171,berkeley,S1.1,2,1,sham,436
506,spd,1,180,1,0.4171,berkeley,S1.1,1,1,sham,437
586,acc,1,180,1,0.4171,berkeley,S1.1,1,1,sham,438
693,spd,1,180,1,0.4171,berkeley,S1.1,2,1,sham,439
733,spd,1,180,1,0.4171,berkeley,S1.1,2,1,sham,440
679,acc,1,180,1,0.4171,berkeley,S1.1,1,1,sham,441
653,acc,1,180,1,0.4171,berkeley,S1.1,2,1,sham,442
546,acc,1,180,1,0.4171,berkeley,S1.1,2,1,sham,443
507,spd,1,180,1,0.4171,berkeley,S1.1,1,1,sham,444
534,spd,1,180,1,0.4171,berkeley,S1.1,2,1,sham,445
546,spd,1,180,1,0.4171,berkeley,S1.1,1,1,sham,446
480,acc,1,180,1,0.4171,berkeley,S1.1,2,1,sham,447
427,spd,1,180,1,0.4171,berkeley,S1.1,1,1,sham,448
493,spd,1,180,1,0.4171,berkeley,S1.1,1,1,sham,449
613,acc,1,180,1,0.4171,berkeley,S1.1,1,1,sham,450
559,acc,1,180,1,0.4171,berkeley,S1.1,2,1,sham,451
453,acc,1,180,1,0.4171,berkeley,S1.1,2,1,sham,452
466,spd,1,180,1,0.4171,berkeley,S1.1,1,1,sham,453
493,spd,1,180,1,0.4171,berkeley,S1.1,2,1,sham,454
493,spd,1,180,1,0.4171,berkeley,S1.1,2,1,sham,455
626,acc,1,180,1,0.4171,berkeley,S1.1,1,1,sham,456
546,acc,1,180,1,0.4171,berkeley,S1.1,2,1,sham,457
506,acc,1,180,1,0.4171,berkeley,S1.1,1,1,sham,458
519,acc,1,180,1,0.4171,berkeley,S1.1,1,1,sham,459
413,acc,1,180,1,0.4171,berkeley,S1.1,2,1,sham,460
426,spd,1,180,1,0.4171,berkeley,S1.1,1,1,sham,461
599,acc,1,180,1,0.4171,berkeley,S1.1,1,1,sham,462
493,spd,1,180,1,0.4171,berkeley,S1.1,2,1,sham,463
573,acc,1,180,1,0.4171,berkeley,S1.1,2,1,sham,464
453,acc,1,180,1,0.4171,berkeley,S1.1,1,1,sham,465
466,spd,1,180,1,0.4171,berkeley,S1.1,1,1,sham,466
479,spd,1,180,1,0.4171,berkeley,S1.1,2,1,sham,467
573,spd,1,180,1,0.4171,berkeley,S1.1,2,1,sham,468
507,acc,1,180,1,0.4171,berkeley,S1.1,1,1,sham,469
507,acc,1,180,1,0.4171,berkeley,S1.1,2,1,sham,470
467,spd,1,180,1,0.4171,berkeley,S1.1,1,1,sham,471
613,acc,1,180,1,0.4171,berkeley,S1.1,2,1,sham,472
533,acc,1,180,1,0.4171,berkeley,S1.1,2,1,sham,473
453,acc,1,180,1,0.4171,berkeley,S1.1,1,1,sham,474
560,spd,1,180,1,0.4171,berkeley,S1.1,2,1,sham,475
494,spd,1,180,1,0.4171,berkeley,S1.1,1,1,sham,476
506,spd,1,180,1,0.4171,berkeley,S1.1,1,1,sham,477
480,spd,1,180,1,0.4171,berkeley,S1.1,2,1,sham,478
547,acc,1,180,1,0.4171,berkeley,S1.1,1,1,sham,479
587,acc,1,180,1,0.4171,berkeley,S1.1,2,1,sham,480
573,acc,1,180,1,0.4171,berkeley,S1.1,2,1,sham,481
533,spd,1,180,1,0.4171,berkeley,S1.1,1,1,sham,482
520,spd,1,180,1,0.4171,berkeley,S1.1,1,1,sham,483
533,spd,1,180,1,0.4171,berkeley,S1.1,2,1,sham,484
507,acc,1,180,1,0.4171,berkeley,S1.1,1,1,sham,485
507,spd,1,180,1,0.4171,berkeley,S1.1,2,1,sham,486
533,acc,1,180,1,0.4171,berkeley,S1.1,2,1,sham,487
400,spd,1,180,1,0.4171,berkeley,S1.1,1,1,sham,488
547,acc,1,180,1,0.4171,berkeley,S1.1,1,1,sham,489
560,acc,1,180,1,0.4171,berkeley,S1.1,1,1,sham,490
507,spd,1,180,1,0.4171,berkeley,S1.1,2,1,sham,491
760,spd,1,180,1,0.4171,berkeley,S1.1,2,1,sham,492
480,spd,1,180,1,0.4171,berkeley,S1.1,1,1,sham,493
506,acc,1,180,1,0.4171,berkeley,S1.1,1,1,sham,494
479,acc,1,180,1,0.4171,berkeley,S1.1,2,1,sham,495
573,acc,1,180,1,0.4171,berkeley,S1.1,2,1,sham,496
546,acc,1,180,1,0.4171,berkeley,S1.1,2,1,sham,497
546,acc,1,180,1,0.4171,berkeley,S1.1,2,1,sham,498
534,spd,1,180,1,0.4171,berkeley,S1.1,1,1,sham,499
480,spd,1,180,1,0.4171,berkeley,S1.1,1,1,sham,500
533,spd,1,180,1,0.4171,berkeley,S1.1,2,1,sham,501
506,acc,1,180,1,0.4171,berkeley,S1.1,1,1,sham,502
480,spd,1,180,1,0.4171,berkeley,S1.1,2,1,sham,503
520,spd,1,180,1,0.4171,berkeley,S1.1,1,1,sham,504
560,acc,1,180,1,0.4171,berkeley,S1.1,1,1,sham,505
546,acc,1,180,1,0.4171,berkeley,S1.1,2,1,sham,506
506,acc,1,180,1,0.4171,berkeley,S1.1,2,1,sham,507
533,acc,1,180,1,0.4171,berkeley,S1.1,1,1,sham,508
520,spd,1,180,1,0.4171,berkeley,S1.1,1,1,sham,509
506,acc,1,180,1,0.4171,berkeley,S1.1,1,1,sham,510
587,acc,1,180,1,0.4171,berkeley,S1.1,2,1,sham,511
547,spd,1,180,1,0.4171,berkeley,S1.1,2,1,sham,512
613,spd,1,180,1,0.4171,berkeley,S1.1,1,1,sham,513
586,acc,1,180,1,0.4171,berkeley,S1.1,2,1,sham,514
653,acc,1,180,1,0.4171,berkeley,S1.1,2,1,sham,515
427,spd,1,180,1,0.4171,berkeley,S1.1,1,1,sham,516
453,spd,1,180,1,0.4171,berkeley,S1.1,2,1,sham,517
573,spd,1,180,1,0.4171,berkeley,S1.1,1,1,sham,518
546,acc,1,180,1,0.4171,berkeley,S1.1,1,1,sham,519
479,spd,1,180,1,0.4171,berkeley,S1.1,2,1,sham,520
560,spd,1,180,1,0.4171,berkeley,S1.1,2,1,sham,521
427,spd,1,180,1,0.4171,berkeley,S1.1,1,1,sham,522
507,spd,1,180,1,0.4171,berkeley,S1.1,2,1,sham,523
453,spd,1,180,1,0.4171,berkeley,S1.1,1,1,sham,524
599,spd,1,180,1,0.4171,berkeley,S1.1,1,1,sham,525
533,spd,1,180,1,0.4171,berkeley,S1.1,2,1,sham,526
639,spd,1,180,1,0.4171,berkeley,S1.1,2,1,sham,527
506,spd,1,180,1,0.4171,berkeley,S1.1,1,1,sham,528
493,spd,1,180,1,0.4171,berkeley,S1.1,2,1,sham,529
493,acc,1,180,1,0.4171,berkeley,S1.1,1,1,sham,530
600,acc,1,180,1,0.4171,berkeley,S1.1,1,1,sham,531
520,spd,1,180,1,0.4171,berkeley,S1.1,2,1,sham,532
466,acc,1,180,1,0.4171,berkeley,S1.1,1,1,sham,533
520,acc,1,180,1,0.4171,berkeley,S1.1,1,1,sham,534
520,spd,1,180,1,0.4171,berkeley,S1.1,2,1,sham,535
586,spd,1,180,1,0.4171,berkeley,S1.1,2,1,sham,536
680,spd,1,180,1,0.4171,berkeley,S1.1,2,1,sham,537
560,acc,1,180,1,0.4171,berkeley,S1.1,2,1,sham,538
454,spd,1,180,1,0.4171,berkeley,S1.1,1,1,sham,539
493,acc,1,180,1,0.4171,berkeley,S1.1,1,1,sham,540
466,spd,1,180,1,0.4171,berkeley,S1.1,2,1,sham,541
466,spd,1,180,1,0.4171,berkeley,S1.1,1,1,sham,542
453,acc,1,180,1,0.4171,berkeley,S1.1,2,1,sham,543
427,spd,1,180,1,0.4171,berkeley,S1.1,1,1,sham,544
507,spd,1,180,1,0.4171,berkeley,S1.1,1,1,sham,545
520,spd,1,180,1,0.4171,berkeley,S1.1,2,1,sham,546
453,spd,1,180,1,0.4171,berkeley,S1.1,1,1,sham,547
467,acc,1,180,1,0.4171,berkeley,S1.1,2,1,sham,548
493,acc,1,180,1,0.4171,berkeley,S1.1,1,1,sham,549
493,acc,1,180,1,0.4171,berkeley,S1.1,2,1,sham,550
560,spd,1,180,1,0.4171,berkeley,S1.1,2,1,sham,551
466,spd,1,180,1,0.4171,berkeley,S1.1,1,1,sham,552
546,spd,1,180,1,0.4171,berkeley,S1.1,2,1,sham,553
506,spd,1,180,1,0.4171,berkeley,S1.1,2,1,sham,554
454,acc,1,180,1,0.4171,berkeley,S1.1,1,1,sham,555
507,spd,1,180,1,0.4171,berkeley,S1.1,1,1,sham,556
507,spd,1,180,1,0.4171,berkeley,S1.1,1,1,sham,557
506,acc,1,180,1,0.4171,berkeley,S1.1,2,1,sham,558
613,acc,1,180,1,0.4171,berkeley,S1.1,1,1,sham,559
493,acc,1,180,1,0.4171,berkeley,S1.1,2,1,sham,560
493,acc,1,180,1,0.4171,berkeley,S1.1,1,1,sham,561
520,acc,1,180,1,0.4171,berkeley,S1.1,2,1,sham,562
493,spd,1,180,1,0.4171,berkeley,S1.1,1,1,sham,563
493,acc,1,180,1,0.4171,berkeley,S1.1,2,1,sham,564
547,spd,1,180,1,0.4171,berkeley,S1.1,2,1,sham,565
507,acc,1,180,1,0.4171,berkeley,S1.1,1,1,sham,566
533,spd,1,180,1,0.4171,berkeley,S1.1,1,1,sham,567
586,acc,1,180,1,0.4171,berkeley,S1.1,2,1,sham,568
573,acc,1,180,1,0.4171,berkeley,S1.1,2,1,sham,569
613,acc,1,180,1,0.4171,berkeley,S1.1,1,1,sham,570
746,acc,1,180,1,0.4171,berkeley,S1.1,1,1,sham,571
506,acc,1,180,1,0.4171,berkeley,S1.1,2,1,sham,572
599,acc,1,180,1,0.4171,berkeley,S1.1,1,1,sham,573
546,acc,1,180,1,0.4171,berkeley,S1.1,2,1,sham,574
613,spd,1,180,1,0.4171,berkeley,S1.1,2,1,sham,575
480,spd,1,180,1,0.4171,berkeley,S1.1,1,1,sham,576
573,acc,1,180,1,0.4171,berkeley,S1.1,1,1,sham,577
467,acc,1,180,1,0.4171,berkeley,S1.1,2,1,sham,578
480,acc,1,180,1,0.4171,berkeley,S1.1,1,1,sham,579
533,spd,1,180,1,0.4171,berkeley,S1.1,2,1,sham,580
453,acc,1,180,1,0.4171,berkeley,S1.1,1,1,sham,581
453,spd,1,180,1,0.4171,berkeley,S1.1,2,1,sham,582
546,spd,1,180,1,0.4171,berkeley,S1.1,1,1,sham,583
507,acc,1,180,1,0.4171,berkeley,S1.1,2,1,sham,584
534,acc,1,180,1,0.4171,berkeley,S1.1,1,1,sham,585
480,acc,1,180,1,0.4171,berkeley,S1.1,2,1,sham,586
547,spd,1,180,1,0.4171,berkeley,S1.1,1,1,sham,587
520,acc,1,180,1,0.4171,berkeley,S1.1,2,1,sham,588
519,spd,1,180,1,0.4171,berkeley,S1.1,1,1,sham,589
480,acc,1,180,1,0.4171,berkeley,S1.1,2,1,sham,590
547,spd,1,180,1,0.4171,berkeley,S1.1,1,1,sham,591
480,acc,1,180,1,0.4171,berkeley,S1.1,2,1,sham,592
507,acc,1,180,1,0.4171,berkeley,S1.1,2,1,sham,593
520,acc,1,180,1,0.4171,berkeley,S1.1,1,1,sham,594
573,acc,1,180,1,0.4171,berkeley,S1.1,1,1,sham,595
493,spd,1,180,1,0.4171,berkeley,S1.1,2,1,sham,596
466,spd,1,180,1,0.4171,berkeley,S1.1,1,1,sham,597
560,spd,1,180,1,0.4171,berkeley,S1.1,2,1,sham,598
453,spd,1,180,1,0.4171,berkeley,S1.1,1,1,sham,599
466,spd,1,180,1,0.4171,berkeley,S1.1,2,1,sham,600
467,spd,1,180,2,0.4171,berkeley,S1.2,1,1,anodal,1
427,acc,1,180,2,0.4171,berkeley,S1.2,2,1,anodal,2
440,acc,1,180,2,0.4171,berkeley,S1.2,1,1,anodal,3
454,acc,1,180,2,0.4171,berkeley,S1.2,2,1,anodal,4
400,acc,1,180,2,0.4171,berkeley,S1.2,1,1,anodal,5
414,acc,1,180,2,0.4171,berkeley,S1.2,2,1,anodal,6
387,acc,1,180,2,0.4171,berkeley,S1.2,1,1,anodal,7
453,spd,1,180,2,0.4171,berkeley,S1.2,2,1,anodal,8
373,spd,1,180,2,0.4171,berkeley,S1.2,1,1,anodal,9
387,acc,1,180,2,0.4171,berkeley,S1.2,2,1,anodal,10
400,acc,1,180,2,0.4171,berkeley,S1.2,1,1,anodal,11
373,spd,1,180,2,0.4171,berkeley,S1.2,2,1,anodal,12
454,acc,1,180,2,0.4171,berkeley,S1.2,1,1,anodal,13
400,spd,1,180,2,0.4171,berkeley,S1.2,2,1,anodal,14
427,acc,1,180,2,0.4171,berkeley,S1.2,1,1,anodal,15
360,spd,1,180,2,0.4171,berkeley,S1.2,2,1,anodal,16
506,spd,1,180,2,0.4171,berkeley,S1.2,2,1,anodal,17
400,spd,1,180,2,0.4171,berkeley,S1.2,2,1,anodal,18
413,acc,1,180,2,0.4171,berkeley,S1.2,1,1,anodal,19
440,spd,1,180,2,0.4171,berkeley,S1.2,1,1,anodal,20
360,acc,1,180,2,0.4171,berkeley,S1.2,2,1,anodal,21
467,spd,0,180,2,0.4171,berkeley,S1.2,2,1,anodal,22
560,acc,1,180,2,0.4171,berkeley,S1.2,1,1,anodal,23
479,acc,1,180,2,0.4171,berkeley,S1.2,1,1,anodal,24
586,acc,1,180,2,0.4171,berkeley,S1.2,1,1,anodal,25
466,spd,1,180,2,0.4171,berkeley,S1.2,2,1,anodal,26
493,spd,1,180,2,0.4171,berkeley,S1.2,2,1,anodal,27
520,spd,1,180,2,0.4171,berkeley,S1.2,1,1,anodal,28
453,acc,1,180,2,0.4171,berkeley,S1.2,2,1,anodal,29
907,acc,1,180,2,0.4171,berkeley,S1.2,1,1,anodal,30
467,spd,1,180,2,0.4171,berkeley,S1.2,2,1,anodal,31
600,spd,1,180,2,0.4171,berkeley,S1.2,1,1,anodal,32
480,acc,1,180,2,0.4171,berkeley,S1.2,2,1,anodal,33
439,acc,1,180,2,0.4171,berkeley,S1.2,1,1,anodal,34
453,spd,1,180,2,0.4171,berkeley,S1.2,2,1,anodal,35
453,spd,1,180,2,0.4171,berkeley,S1.2,1,1,anodal,36
467,spd,1,180,2,0.4171,berkeley,S1.2,1,1,anodal,37
413,spd,1,180,2,0.4171,berkeley,S1.2,2,1,anodal,38
546,acc,1,180,2,0.4171,berkeley,S1.2,1,1,anodal,39
506,spd,1,180,2,0.4171,berkeley,S1.2,2,1,anodal,40
546,acc,1,180,2,0.4171,berkeley,S1.2,2,1,anodal,41
519,acc,1,180,2,0.4171,berkeley,S1.2,1,1,anodal,42
573,spd,1,180,2,0.4171,berkeley,S1.2,2,1,anodal,43
386,acc,1,180,2,0.4171,berkeley,S1.2,1,1,anodal,44
439,spd,1,180,2,0.4171,berkeley,S1.2,1,1,anodal,45
386,spd,1,180,2,0.4171,berkeley,S1.2,2,1,anodal,46
440,spd,1,180,2,0.4171,berkeley,S1.2,1,1,anodal,47
467,spd,1,180,2,0.4171,berkeley,S1.2,2,1,anodal,48
440,spd,1,180,2,0.4171,berkeley,S1.2,2,1,anodal,49
586,acc,1,180,2,0.4171,berkeley,S1.2,2,1,anodal,50
520,acc,1,180,2,0.4171,berkeley,S1.2,1,1,anodal,51
520,acc,1,180,2,0.4171,berkeley,S1.2,1,1,anodal,52
453,spd,1,180,2,0.4171,berkeley,S1.2,1,1,anodal,53
493,spd,1,180,2,0.4171,berkeley,S1.2,2,1,anodal,54
427,acc,1,180,2,0.4171,berkeley,S1.2,1,1,anodal,55
413,acc,1,180,2,0.4171,berkeley,S1.2,2,1,anodal,56
440,spd,1,180,2,0.4171,berkeley,S1.2,1,1,anodal,57
413,acc,1,180,2,0.4171,berkeley,S1.2,1,1,anodal,58
426,acc,1,180,2,0.4171,berkeley,S1.2,2,1,anodal,59
480,acc,1,180,2,0.4171,berkeley,S1.2,2,1,anodal,60
453,acc,1,180,2,0.4171,berkeley,S1.2,2,1,anodal,61
480,spd,1,180,2,0.4171,berkeley,S1.2,2,1,anodal,62
440,acc,1,180,2,0.4171,berkeley,S1.2,1,1,anodal,63
520,spd,1,180,2,0.4171,berkeley,S1.2,1,1,anodal,64
466,spd,1,180,2,0.4171,berkeley,S1.2,2,1,anodal,65
493,acc,1,180,2,0.4171,berkeley,S1.2,1,1,anodal,66
440,acc,1,180,2,0.4171,berkeley,S1.2,1,1,anodal,67
453,acc,1,180,2,0.4171,berkeley,S1.2,2,1,anodal,68
467,spd,1,180,2,0.4171,berkeley,S1.2,2,1,anodal,69
413,acc,1,180,2,0.4171,berkeley,S1.2,1,1,anodal,70
466,acc,1,180,2,0.4171,berkeley,S1.2,2,1,anodal,71
413,spd,1,180,2,0.4171,berkeley,S1.2,1,1,anodal,72
453,acc,1,180,2,0.4171,berkeley,S1.2,2,1,anodal,73
360,acc,1,180,2,0.4171,berkeley,S1.2,1,1,anodal,74
466,spd,1,180,2,0.4171,berkeley,S1.2,1,1,anodal,75
479,spd,1,180,2,0.4171,berkeley,S1.2,2,1,anodal,76
386,spd,1,180,2,0.4171,berkeley,S1.2,1,1,anodal,77
520,acc,1,180,2,0.4171,berkeley,S1.2,2,1,anodal,78
400,spd,1,180,2,0.4171,berkeley,S1.2,2,1,anodal,79
466,spd,1,180,2,0.4171,berkeley,S1.2,1,1,anodal,80
454,spd,1,180,2,0.4171,berkeley,S1.2,2,1,anodal,81
413,acc,1,180,2,0.4171,berkeley,S1.2,1,1,anodal,82
480,acc,1,180,2,0.4171,berkeley,S1.2,1,1,anodal,83
453,acc,1,180,2,0.4171,berkeley,S1.2,2,1,anodal,84
413,acc,1,180,2,0.4171,berkeley,S1.2,2,1,anodal,85
360,spd,1,180,2,0.4171,berkeley,S1.2,1,1,anodal,86
400,spd,1,180,2,0.4171,berkeley,S1.2,1,1,anodal,87
666,acc,1,180,2,0.4171,berkeley,S1.2,2,1,anodal,88
373,spd,1,180,2,0.4171,berkeley,S1.2,1,1,anodal,89
506,acc,1,180,2,0.4171,berkeley,S1.2,2,1,anodal,90
466,spd,1,180,2,0.4171,berkeley,S1.2,2,1,anodal,91
359,spd,1,180,2,0.4171,berkeley,S1.2,1,1,anodal,92
506,acc,1,180,2,0.4171,berkeley,S1.2,1,1,anodal,93
400,spd,1,180,2,0.4171,berkeley,S1.2,2,1,anodal,94
427,spd,1,180,2,0.4171,berkeley,S1.2,1,1,anodal,95
427,spd,1,180,2,0.4171,berkeley,S1.2,2,1,anodal,96
333,spd,1,180,2,0.4171,berkeley,S1.2,1,1,anodal,97
400,spd,1,180,2,0.4171,berkeley,S1.2,2,1,anodal,98
400,spd,1,180,2,0.4171,berkeley,S1.2,2,1,anodal,99
399,spd,1,180,2,0.4171,berkeley,S1.2,1,1,anodal,100
400,spd,1,180,2,0.4171,berkeley,S1.2,2,1,anodal,101
427,spd,1,180,2,0.4171,berkeley,S1.2,1,1,anodal,102
440,spd,1,180,2,0.4171,berkeley,S1.2,1,1,anodal,103
439,acc,1,180,2,0.4171,berkeley,S1.2,2,1,anodal,104
386,acc,1,180,2,0.4171,berkeley,S1.2,1,1,anodal,105
426,acc,1,180,2,0.4171,berkeley,S1.2,2,1,anodal,106
426,acc,1,180,2,0.4171,berkeley,S1.2,1,1,anodal,107
386,spd,1,180,2,0.4171,berkeley,S1.2,2,1,anodal,108
493,acc,1,180,2,0.4171,berkeley,S1.2,2,1,anodal,109
546,acc,1,180,2,0.4171,berkeley,S1.2,2,1,anodal,110
454,acc,1,180,2,0.4171,berkeley,S1.2,1,1,anodal,111
453,acc,1,180,2,0.4171,berkeley,S1.2,1,1,anodal,112
426,spd,1,180,2,0.4171,berkeley,S1.2,2,1,anodal,113
373,spd,1,180,2,0.4171,berkeley,S1.2,1,1,anodal,114
533,acc,1,180,2,0.4171,berkeley,S1.2,2,1,anodal,115
360,spd,1,180,2,0.4171,berkeley,S1.2,1,1,anodal,116
467,spd,1,180,2,0.4171,berkeley,S1.2,2,1,anodal,117
347,spd,1,180,2,0.4171,berkeley,S1.2,1,1,anodal,118
400,spd,1,180,2,0.4171,berkeley,S1.2,1,1,anodal,119
413,spd,1,180,2,0.4171,berkeley,S1.2,2,1,anodal,120
480,spd,1,180,2,0.4171,berkeley,S1.2,1,1,anodal,121
493,acc,1,180,2,0.4171,berkeley,S1.2,1,1,anodal,122
507,spd,1,180,2,0.4171,berkeley,S1.2,2,1,anodal,123
467,spd,1,180,2,0.4171,berkeley,S1.2,2,1,anodal,124
453,spd,1,180,2,0.4171,berkeley,S1.2,1,1,anodal,125
440,spd,1,180,2,0.4171,berkeley,S1.2,2,1,anodal,126
360,acc,1,180,2,0.4171,berkeley,S1.2,1,1,anodal,127
479,acc,1,180,2,0.4171,berkeley,S1.2,2,1,anodal,128
533,acc,1,180,2,0.4171,berkeley,S1.2,2,1,anodal,129
387,spd,1,180,2,0.4171,berkeley,S1.2,1,1,anodal,130
414,spd,1,180,2,0.4171,berkeley,S1.2,2,1,anodal,131
600,spd,1,180,2,0.4171,berkeley,S1.2,1,1,anodal,132
387,spd,1,180,2,0.4171,berkeley,S1.2,2,1,anodal,133
467,acc,1,180,2,0.4171,berkeley,S1.2,1,1,anodal,134
453,spd,1,180,2,0.4171,berkeley,S1.2,2,1,anodal,135
400,spd,1,180,2,0.4171,berkeley,S1.2,1,1,anodal,136
387,acc,1,180,2,0.4171,berkeley,S1.2,2,1,anodal,137
520,acc,1,180,2,0.4171,berkeley,S1.2,1,1,anodal,138
559,acc,1,180,2,0.4171,berkeley,S1.2,1,1,anodal,139
426,spd,1,180,2,0.4171,berkeley,S1.2,2,1,anodal,140
493,acc,1,180,2,0.4171,berkeley,S1.2,1,1,anodal,141
493,acc,1,180,2,0.4171,berkeley,S1.2,2,1,anodal,142
560,spd,1,180,2,0.4171,berkeley,S1.2,2,1,anodal,143
454,acc,1,180,2,0.4171,berkeley,S1.2,1,1,anodal,144
413,acc,1,180,2,0.4171,berkeley,S1.2,2,1,anodal,145
413,acc,1,180,2,0.4171,berkeley,S1.2,1,1,anodal,146
427,spd,1,180,2,0.4171,berkeley,S1.2,1,1,anodal,147
400,spd,1,180,2,0.4171,berkeley,S1.2,2,1,anodal,148
546,acc,1,180,2,0.4171,berkeley,S1.2,2,1,anodal,149
413,spd,1,180,2,0.4171,berkeley,S1.2,1,1,anodal,150
453,acc,1,180,2,0.4171,berkeley,S1.2,2,1,anodal,151
426,acc,1,180,2,0.4171,berkeley,S1.2,1,1,anodal,152
520,acc,1,180,2,0.4171,berkeley,S1.2,1,1,anodal,153
440,acc,1,180,2,0.4171,berkeley,S1.2,2,1,anodal,154
493,acc,1,180,2,0.4171,berkeley,S1.2,1,1,anodal,155
426,acc,1,180,2,0.4171,berkeley,S1.2,2,1,anodal,156
533,acc,1,180,2,0.4171,berkeley,S1.2,2,1,anodal,157
453,acc,1,180,2,0.4171,berkeley,S1.2,1,1,anodal,158
427,acc,1,180,2,0.4171,berkeley,S1.2,1,1,anodal,159
453,acc,1,180,2,0.4171,berkeley,S1.2,2,1,anodal,160
426,acc,1,180,2,0.4171,berkeley,S1.2,1,1,anodal,161
440,spd,1,180,2,0.4171,berkeley,S1.2,2,1,anodal,162
493,acc,1,180,2,0.4171,berkeley,S1.2,2,1,anodal,163
466,acc,1,180,2,0.4171,berkeley,S1.2,1,1,anodal,164
426,spd,1,180,2,0.4171,berkeley,S1.2,2,1,anodal,165
480,acc,1,180,2,0.4171,berkeley,S1.2,2,1,anodal,166
453,acc,1,180,2,0.4171,berkeley,S1.2,1,1,anodal,167
426,acc,1,180,2,0.4171,berkeley,S1.2,1,1,anodal,168
400,spd,1,180,2,0.4171,berkeley,S1.2,2,1,anodal,169
400,spd,1,180,2,0.4171,berkeley,S1.2,1,1,anodal,170
374,spd,1,180,2,0.4171,berkeley,S1.2,2,1,anodal,171
600,acc,1,180,2,0.4171,berkeley,S1.2,1,1,anodal,172
467,acc,1,180,2,0.4171,berkeley,S1.2,1,1,anodal,173
467,acc,1,180,2,0.4171,berkeley,S1.2,1,1,anodal,174
600,acc,1,180,2,0.4171,berkeley,S1.2,2,1,anodal,175
613,acc,1,180,2,0.4171,berkeley,S1.2,2,1,anodal,176
520,spd,1,180,2,0.4171,berkeley,S1.2,1,1,anodal,177
467,spd,1,180,2,0.4171,berkeley,S1.2,1,1,anodal,178
507,acc,1,180,2,0.4171,berkeley,S1.2,2,1,anodal,179
533,acc,1,180,2,0.4171,berkeley,S1.2,2,1,anodal,180
600,acc,1,180,2,0.4171,berkeley,S1.2,1,1,anodal,181
387,spd,1,180,2,0.4171,berkeley,S1.2,1,1,anodal,182
493,acc,1,180,2,0.4171,berkeley,S1.2,2,1,anodal,183
520,spd,1,180,2,0.4171,berkeley,S1.2,2,1,anodal,184
533,spd,1,180,2,0.4171,berkeley,S1.2,2,1,anodal,185
413,acc,1,180,2,0.4171,berkeley,S1.2,1,1,anodal,186
440,spd,1,180,2,0.4171,berkeley,S1.2,2,1,anodal,187
466,acc,1,180,2,0.4171,berkeley,S1.2,1,1,anodal,188
426,acc,1,180,2,0.4171,berkeley,S1.2,1,1,anodal,189
426,acc,1,180,2,0.4171,berkeley,S1.2,1,1,anodal,190
453,acc,1,180,2,0.4171,berkeley,S1.2,2,1,anodal,191
627,spd,1,180,2,0.4171,berkeley,S1.2,2,1,anodal,192
520,acc,1,180,2,0.4171,berkeley,S1.2,2,1,anodal,193
454,spd,1,180,2,0.4171,berkeley,S1.2,2,1,anodal,194
440,acc,1,180,2,0.4171,berkeley,S1.2,1,1,anodal,195
454,spd,1,180,2,0.4171,berkeley,S1.2,1,1,anodal,196
387,spd,1,180,2,0.4171,berkeley,S1.2,1,1,anodal,197
480,acc,1,180,2,0.4171,berkeley,S1.2,2,1,anodal,198
427,acc,1,180,2,0.4171,berkeley,S1.2,1,1,anodal,199
453,acc,1,180,2,0.4171,berkeley,S1.2,2,1,anodal,200
453,acc,1,180,2,0.4171,berkeley,S1.2,1,1,anodal,201
479,acc,1,180,2,0.4171,berkeley,S1.2,2,1,anodal,202
440,spd,1,180,2,0.4171,berkeley,S1.2,2,1,anodal,203
427,spd,1,180,2,0.4171,berkeley,S1.2,1,1,anodal,204
533,acc,1,180,2,0.4171,berkeley,S1.2,2,1,anodal,205
586,spd,1,180,2,0.4171,berkeley,S1.2,1,1,anodal,206
413,spd,1,180,2,0.4171,berkeley,S1.2,2,1,anodal,207
534,spd,1,180,2,0.4171,berkeley,S1.2,1,1,anodal,208
520,acc,1,180,2,0.4171,berkeley,S1.2,2,1,anodal,209
520,spd,1,180,2,0.4171,berkeley,S1.2,1,1,anodal,210
439,acc,1,180,2,0.4171,berkeley,S1.2,2,1,anodal,211
413,spd,1,180,2,0.4171,berkeley,S1.2,1,1,anodal,212
493,acc,1,180,2,0.4171,berkeley,S1.2,2,1,anodal,213
427,spd,1,180,2,0.4171,berkeley,S1.2,1,1,anodal,214
467,acc,1,180,2,0.4171,berkeley,S1.2,1,1,anodal,215
467,spd,1,180,2,0.4171,berkeley,S1.2,2,1,anodal,216
493,acc,1,180,2,0.4171,berkeley,S1.2,2,1,anodal,217
493,acc,1,180,2,0.4171,berkeley,S1.2,1,1,anodal,218
507,acc,1,180,2,0.4171,berkeley,S1.2,1,1,anodal,219
427,spd,1,180,2,0.4171,berkeley,S1.2,2,1,anodal,220
427,acc,1,180,2,0.4171,berkeley,S1.2,1,1,anodal,221
520,spd,1,180,2,0.4171,berkeley,S1.2,2,1,anodal,222
453,spd,1,180,2,0.4171,berkeley,S1.2,1,1,anodal,223
467,acc,1,180,2,0.4171,berkeley,S1.2,2,1,anodal,224
547,acc,1,180,2,0.4171,berkeley,S1.2,2,1,anodal,225
533,acc,1,180,2,0.4171,berkeley,S1.2,2,1,anodal,226
440,spd,1,180,2,0.4171,berkeley,S1.2,1,1,anodal,227
480,acc,1,180,2,0.4171,berkeley,S1.2,1,1,anodal,228
414,spd,1,180,2,0.4171,berkeley,S1.2,2,1,anodal,229
400,acc,1,180,2,0.4171,berkeley,S1.2,1,1,anodal,230
440,spd,1,180,2,0.4171,berkeley,S1.2,1,1,anodal,231
400,spd,1,180,2,0.4171,berkeley,S1.2,2,1,anodal,232
413,spd,1,180,2,0.4171,berkeley,S1.2,1,1,anodal,233
426,acc,1,180,2,0.4171,berkeley,S1.2,2,1,anodal,234
400,spd,1,180,2,0.4171,berkeley,S1.2,1,1,anodal,235
360,spd,1,180,2,0.4171,berkeley,S1.2,2,1,anodal,236
520,acc,1,180,2,0.4171,berkeley,S1.2,2,1,anodal,237
493,spd,1,180,2,0.4171,berkeley,S1.2,2,1,anodal,238
400,acc,1,180,2,0.4171,berkeley,S1.2,1,1,anodal,239
386,spd,1,180,2,0.4171,berkeley,S1.2,1,1,anodal,240
439,spd,1,180,2,0.4171,berkeley,S1.2,2,1,anodal,241
440,spd,1,180,2,0.4171,berkeley,S1.2,1,1,anodal,242
493,acc,1,180,2,0.4171,berkeley,S1.2,2,1,anodal,243
533,spd,1,180,2,0.4171,berkeley,S1.2,1,1,anodal,244
506,acc,1,180,2,0.4171,berkeley,S1.2,1,1,anodal,245
413,acc,1,180,2,0.4171,berkeley,S1.2,2,1,anodal,246
400,acc,1,180,2,0.4171,berkeley,S1.2,1,1,anodal,247
399,acc,1,180,2,0.4171,berkeley,S1.2,2,1,anodal,248
440,spd,1,180,2,0.4171,berkeley,S1.2,1,1,anodal,249
467,spd,1,180,2,0.4171,berkeley,S1.2,2,1,anodal,250
480,spd,1,180,2,0.4171,berkeley,S1.2,2,1,anodal,251
400,acc,1,180,2,0.4171,berkeley,S1.2,1,1,anodal,252
440,acc,1,180,2,0.4171,berkeley,S1.2,2,1,anodal,253
427,spd,1,180,2,0.4171,berkeley,S1.2,1,1,anodal,254
520,spd,1,180,2,0.4171,berkeley,S1.2,1,1,anodal,255
480,spd,1,180,2,0.4171,berkeley,S1.2,2,1,anodal,256
386,spd,1,180,2,0.4171,berkeley,S1.2,1,1,anodal,257
453,acc,1,180,2,0.4171,berkeley,S1.2,2,1,anodal,258
453,acc,1,180,2,0.4171,berkeley,S1.2,2,1,anodal,259
480,spd,1,180,2,0.4171,berkeley,S1.2,1,1,anodal,260
467,spd,1,180,2,0.4171,berkeley,S1.2,2,1,anodal,261
627,acc,1,180,2,0.4171,berkeley,S1.2,1,1,anodal,262
507,acc,1,180,2,0.4171,berkeley,S1.2,1,1,anodal,263
493,acc,1,180,2,0.4171,berkeley,S1.2,2,1,anodal,264
519,acc,1,180,2,0.4171,berkeley,S1.2,2,1,anodal,265
546,acc,1,180,2,0.4171,berkeley,S1.2,2,1,anodal,266
453,spd,1,180,2,0.4171,berkeley,S1.2,1,1,anodal,267
426,spd,1,180,2,0.4171,berkeley,S1.2,1,1,anodal,268
519,acc,1,180,2,0.4171,berkeley,S1.2,1,1,anodal,269
466,spd,1,180,2,0.4171,berkeley,S1.2,1,1,anodal,270
386,acc,1,180,2,0.4171,berkeley,S1.2,2,1,anodal,271
453,acc,1,180,2,0.4171,berkeley,S1.2,2,1,anodal,272
493,acc,1,180,2,0.4171,berkeley,S1.2,2,1,anodal,273
507,acc,1,180,2,0.4171,berkeley,S1.2,1,1,anodal,274
413,spd,1,180,2,0.4171,berkeley,S1.2,1,1,anodal,275
426,acc,1,180,2,0.4171,berkeley,S1.2,2,1,anodal,276
400,acc,1,180,2,0.4171,berkeley,S1.2,1,1,anodal,277
560,spd,1,180,2,0.4171,berkeley,S1.2,2,1,anodal,278
480,acc,1,180,2,0.4171,berkeley,S1.2,2,1,anodal,279
453,spd,1,180,2,0.4171,berkeley,S1.2,1,1,anodal,280
560,spd,1,180,2,0.4171,berkeley,S1.2,1,1,anodal,281
466,spd,1,180,2,0.4171,berkeley,S1.2,1,1,anodal,282
399,spd,1,180,2,0.4171,berkeley,S1.2,2,1,anodal,283
600,spd,1,180,2,0.4171,berkeley,S1.2,2,1,anodal,284
413,spd,1,180,2,0.4171,berkeley,S1.2,1,1,anodal,285
413,spd,1,180,2,0.4171,berkeley,S1.2,2,1,anodal,286
560,acc,1,180,2,0.4171,berkeley,S1.2,2,1,anodal,287
413,spd,1,180,2,0.4171,berkeley,S1.2,1,1,anodal,288
453,acc,1,180,2,0.4171,berkeley,S1.2,1,1,anodal,289
453,acc,1,180,2,0.4171,berkeley,S1.2,1,1,anodal,290
373,acc,1,180,2,0.4171,berkeley,S1.2,2,1,anodal,291
480,acc,1,180,2,0.4171,berkeley,S1.2,2,1,anodal,292
439,spd,1,180,2,0.4171,berkeley,S1.2,1,1,anodal,293
480,spd,1,180,2,0.4171,berkeley,S1.2,1,1,anodal,294
427,spd,1,180,2,0.4171,berkeley,S1.2,2,1,anodal,295
520,acc,1,180,2,0.4171,berkeley,S1.2,2,1,anodal,296
466,spd,1,180,2,0.4171,berkeley,S1.2,2,1,anodal,297
453,acc,1,180,2,0.4171,berkeley,S1.2,1,1,anodal,298
587,spd,1,180,2,0.4171,berkeley,S1.2,1,1,anodal,299
520,acc,1,180,2,0.4171,berkeley,S1.2,2,1,anodal,300
493,acc,1,180,2,0.4171,berkeley,S1.2,1,1,anodal,301
413,spd,1,180,2,0.4171,berkeley,S1.2,2,1,anodal,302
414,spd,1,180,2,0.4171,berkeley,S1.2,1,1,anodal,303
413,acc,1,180,2,0.4171,berkeley,S1.2,2,1,anodal,304
360,spd,1,180,2,0.4171,berkeley,S1.2,1,1,anodal,305
453,acc,1,180,2,0.4171,berkeley,S1.2,2,1,anodal,306
493,acc,1,180,2,0.4171,berkeley,S1.2,2,1,anodal,307
440,acc,1,180,2,0.4171,berkeley,S1.2,1,1,anodal,308
373,spd,1,180,2,0.4171,berkeley,S1.2,2,1,anodal,309
414,acc,1,180,2,0.4171,berkeley,S1.2,1,1,anodal,310
413,acc,1,180,2,0.4171,berkeley,S1.2,1,1,anodal,311
413,spd,1,180,2,0.4171,berkeley,S1.2,2,1,anodal,312
427,acc,1,180,2,0.4171,berkeley,S1.2,2,1,anodal,313
387,spd,1,180,2,0.4171,berkeley,S1.2,1,1,anodal,314
387,spd,1,180,2,0.4171,berkeley,S1.2,2,1,anodal,315
453,acc,1,180,2,0.4171,berkeley,S1.2,1,1,anodal,316
440,acc,1,180,2,0.4171,berkeley,S1.2,2,1,anodal,317
693,spd,1,180,2,0.4171,berkeley,S1.2,1,1,anodal,318
466,spd,1,180,2,0.4171,berkeley,S1.2,2,1,anodal,319
480,acc,1,180,2,0.4171,berkeley,S1.2,1,1,anodal,320
493,acc,1,180,2,0.4171,berkeley,S1.2,2,1,anodal,321
466,acc,1,180,2,0.4171,berkeley,S1.2,2,1,anodal,322
360,spd,1,180,2,0.4171,berkeley,S1.2,1,1,anodal,323
547,acc,1,180,2,0.4171,berkeley,S1.2,1,1,anodal,324
480,spd,1,180,2,0.4171,berkeley,S1.2,1,1,anodal,325
467,spd,1,180,2,0.4171,berkeley,S1.2,1,1,anodal,326
453,acc,1,180,2,0.4171,berkeley,S1.2,2,1,anodal,327
413,acc,1,180,2,0.4171,berkeley,S1.2,2,1,anodal,328
426,acc,1,180,2,0.4171,berkeley,S1.2,1,1,anodal,329
386,acc,1,180,2,0.4171,berkeley,S1.2,2,1,anodal,330
399,spd,1,180,2,0.4171,berkeley,S1.2,2,1,anodal,331
400,acc,1,180,2,0.4171,berkeley,S1.2,1,1,anodal,332
507,acc,1,180,2,0.4171,berkeley,S1.2,1,1,anodal,333
427,spd,1,180,2,0.4171,berkeley,S1.2,2,1,anodal,334
573,spd,1,180,2,0.4171,berkeley,S1.2,2,1,anodal,335
400,acc,1,180,2,0.4171,berkeley,S1.2,1,1,anodal,336
493,spd,1,180,2,0.4171,berkeley,S1.2,2,1,anodal,337
546,spd,1,180,2,0.4171,berkeley,S1.2,1,1,anodal,338
440,acc,1,180,2,0.4171,berkeley,S1.2,2,1,anodal,339
440,acc,1,180,2,0.4171,berkeley,S1.2,1,1,anodal,340
400,acc,1,180,2,0.4171,berkeley,S1.2,2,1,anodal,341
466,spd,1,180,2,0.4171,berkeley,S1.2,2,1,anodal,342
399,spd,1,180,2,0.4171,berkeley,S1.2,1,1,anodal,343
440,spd,1,180,2,0.4171,berkeley,S1.2,1,1,anodal,344
480,acc,1,180,2,0.4171,berkeley,S1.2,2,1,anodal,345
426,spd,1,180,2,0.4171,berkeley,S1.2,2,1,anodal,346
506,spd,1,180,2,0.4171,berkeley,S1.2,1,1,anodal,347
666,acc,1,180,2,0.4171,berkeley,S1.2,1,1,anodal,348
480,acc,1,180,2,0.4171,berkeley,S1.2,2,1,anodal,349
440,acc,1,180,2,0.4171,berkeley,S1.2,1,1,anodal,350
427,acc,1,180,2,0.4171,berkeley,S1.2,2,1,anodal,351
467,acc,1,180,2,0.4171,berkeley,S1.2,1,1,anodal,352
506,acc,1,180,2,0.4171,berkeley,S1.2,2,1,anodal,353
506,spd,1,180,2,0.4171,berkeley,S1.2,2,1,anodal,354
480,acc,1,180,2,0.4171,berkeley,S1.2,1,1,anodal,355
627,spd,1,180,2,0.4171,berkeley,S1.2,1,1,anodal,356
533,acc,1,180,2,0.4171,berkeley,S1.2,1,1,anodal,357
480,spd,1,180,2,0.4171,berkeley,S1.2,1,1,anodal,358
440,acc,1,180,2,0.4171,berkeley,S1.2,2,1,anodal,359
667,spd,1,180,2,0.4171,berkeley,S1.2,2,1,anodal,360
493,spd,1,180,2,0.4171,berkeley,S1.2,2,1,anodal,361
400,spd,1,180,2,0.4171,berkeley,S1.2,1,1,anodal,362
373,spd,1,180,2,0.4171,berkeley,S1.2,2,1,anodal,363
453,acc,1,180,2,0.4171,berkeley,S1.2,1,1,anodal,364
439,acc,1,180,2,0.4171,berkeley,S1.2,2,1,anodal,365
480,acc,1,180,2,0.4171,berkeley,S1.2,2,1,anodal,366
427,spd,1,180,2,0.4171,berkeley,S1.2,1,1,anodal,367
413,acc,1,180,2,0.4171,berkeley,S1.2,1,1,anodal,368
400,acc,1,180,2,0.4171,berkeley,S1.2,2,1,anodal,369
453,acc,1,180,2,0.4171,berkeley,S1.2,2,1,anodal,370
413,spd,1,180,2,0.4171,berkeley,S1.2,1,1,anodal,371
520,spd,1,180,2,0.4171,berkeley,S1.2,1,1,anodal,372
520,acc,1,180,2,0.4171,berkeley,S1.2,2,1,anodal,373
427,acc,1,180,2,0.4171,berkeley,S1.2,2,1,anodal,374
480,spd,1,180,2,0.4171,berkeley,S1.2,1,1,anodal,375
640,spd,1,180,2,0.4171,berkeley,S1.2,1,1,anodal,376
506,spd,1,180,2,0.4171,berkeley,S1.2,1,1,anodal,377
426,spd,1,180,2,0.4171,berkeley,S1.2,1,1,anodal,378
426,acc,1,180,2,0.4171,berkeley,S1.2,2,1,anodal,379
520,spd,1,180,2,0.4171,berkeley,S1.2,2,1,anodal,380
413,acc,1,180,2,0.4171,berkeley,S1.2,1,1,anodal,381
400,spd,1,180,2,0.4171,berkeley,S1.2,2,1,anodal,382
440,acc,1,180,2,0.4171,berkeley,S1.2,1,1,anodal,383
453,spd,1,180,2,0.4171,berkeley,S1.2,2,1,anodal,384
480,acc,1,180,2,0.4171,berkeley,S1.2,2,1,anodal,385
506,spd,1,180,2,0.4171,berkeley,S1.2,2,1,anodal,386
440,acc,1,180,2,0.4171,berkeley,S1.2,1,1,anodal,387
453,spd,1,180,2,0.4171,berkeley,S1.2,1,1,anodal,388
426,spd,1,180,2,0.4171,berkeley,S1.2,2,1,anodal,389
360,spd,1,180,2,0.4171,berkeley,S1.2,1,1,anodal,390
440,acc,1,180,2,0.4171,berkeley,S1.2,1,1,anodal,391
399,spd,1,180,2,0.4171,berkeley,S1.2,2,1,anodal,392
480,spd,1,180,2,0.4171,berkeley,S1.2,2,1,anodal,393
440,acc,1,180,2,0.4171,berkeley,S1.2,1,1,anodal,394
439,acc,1,180,2,0.4171,berkeley,S1.2,1,1,anodal,395
386,acc,1,180,2,0.4171,berkeley,S1.2,2,1,anodal,396
426,spd,1,180,2,0.4171,berkeley,S1.2,2,1,anodal,397
426,acc,1,180,2,0.4171,berkeley,S1.2,1,1,anodal,398
453,spd,1,180,2,0.4171,berkeley,S1.2,2,1,anodal,399
426,acc,1,180,2,0.4171,berkeley,S1.2,1,1,anodal,400
439,spd,1,180,2,0.4171,berkeley,S1.2,2,1,anodal,401
453,acc,1,180,2,0.4171,berkeley,S1.2,2,1,anodal,402
507,acc,1,180,2,0.4171,berkeley,S1.2,1,1,anodal,403
414,spd,1,180,2,0.4171,berkeley,S1.2,1,1,anodal,404
560,spd,1,180,2,0.4171,berkeley,S1.2,1,1,anodal,405
533,spd,1,180,2,0.4171,berkeley,S1.2,1,1,anodal,406
533,acc,1,180,2,0.4171,berkeley,S1.2,2,1,anodal,407
466,acc,1,180,2,0.4171,berkeley,S1.2,2,1,anodal,408
426,spd,1,180,2,0.4171,berkeley,S1.2,1,1,anodal,409
426,spd,1,180,2,0.4171,berkeley,S1.2,2,1,anodal,410
439,acc,1,180,2,0.4171,berkeley,S1.2,1,1,anodal,411
413,spd,1,180,2,0.4171,berkeley,S1.2,2,1,anodal,412
453,spd,1,180,2,0.4171,berkeley,S1.2,1,1,anodal,413
400,acc,1,180,2,0.4171,berkeley,S1.2,2,1,anodal,414
453,spd,1,180,2,0.4171,berkeley,S1.2,2,1,anodal,415
413,spd,1,180,2,0.4171,berkeley,S1.2,1,1,anodal,416
386,spd,1,180,2,0.4171,berkeley,S1.2,2,1,anodal,417
400,acc,1,180,2,0.4171,berkeley,S1.2,1,1,anodal,418
373,spd,1,180,2,0.4171,berkeley,S1.2,2,1,anodal,419
413,acc,1,180,2,0.4171,berkeley,S1.2,1,1,anodal,420
399,acc,1,180,2,0.4171,berkeley,S1.2,2,1,anodal,421
440,spd,1,180,2,0.4171,berkeley,S1.2,1,1,anodal,422
493,spd,1,180,2,0.4171,berkeley,S1.2,2,1,anodal,423
373,acc,1,180,2,0.4171,berkeley,S1.2,1,1,anodal,424
374,acc,1,180,2,0.4171,berkeley,S1.2,2,1,anodal,425
507,spd,1,180,2,0.4171,berkeley,S1.2,1,1,anodal,426
587,acc,1,180,2,0.4171,berkeley,S1.2,2,1,anodal,427
400,spd,1,180,2,0.4171,berkeley,S1.2,1,1,anodal,428
387,spd,1,180,2,0.4171,berkeley,S1.2,2,1,anodal,429
347,spd,1,180,2,0.4171,berkeley,S1.2,1,1,anodal,430
374,acc,1,180,2,0.4171,berkeley,S1.2,2,1,anodal,431
493,acc,1,180,2,0.4171,berkeley,S1.2,1,1,anodal,432
533,acc,1,180,2,0.4171,berkeley,S1.2,1,1,anodal,433
453,spd,1,180,2,0.4171,berkeley,S1.2,2,1,anodal,434
360,acc,1,180,2,0.4171,berkeley,S1.2,1,1,anodal,435
400,spd,1,180,2,0.4171,berkeley,S1.2,2,1,anodal,436
426,spd,1,180,2,0.4171,berkeley,S1.2,1,1,anodal,437
399,acc,1,180,2,0.4171,berkeley,S1.2,2,1,anodal,438
480,acc,1,180,2,0.4171,berkeley,S1.2,2,1,anodal,439
547,spd,1,180,2,0.4171,berkeley,S1.2,1,1,anodal,440
440,acc,1,180,2,0.4171,berkeley,S1.2,2,1,anodal,441
386,spd,1,180,2,0.4171,berkeley,S1.2,1,1,anodal,442
439,spd,1,180,2,0.4171,berkeley,S1.2,1,1,anodal,443
440,spd,1,180,2,0.4171,berkeley,S1.2,2,1,anodal,444
437,spd,1,180,2,0.4171,berkeley,S1.2,1,1,anodal,445
359,acc,1,180,2,0.4171,berkeley,S1.2,2,1,anodal,446
400,spd,1,180,2,0.4171,berkeley,S1.2,1,1,anodal,447
373,acc,1,180,2,0.4171,berkeley,S1.2,2,1,anodal,448
480,spd,1,180,2,0.4171,berkeley,S1.2,2,1,anodal,449
400,acc,1,180,2,0.4171,berkeley,S1.2,1,1,anodal,450
479,spd,1,180,2,0.4171,berkeley,S1.2,2,1,anodal,451
426,acc,1,180,2,0.4171,berkeley,S1.2,1,1,anodal,452
413,acc,1,180,2,0.4171,berkeley,S1.2,2,1,anodal,453
599,spd,1,180,2,0.4171,berkeley,S1.2,2,1,anodal,454
400,spd,1,180,2,0.4171,berkeley,S1.2,1,1,anodal,455
387,spd,1,180,2,0.4171,berkeley,S1.2,1,1,anodal,456
520,acc,1,180,2,0.4171,berkeley,S1.2,1,1,anodal,457
374,spd,1,180,2,0.4171,berkeley,S1.2,2,1,anodal,458
413,spd,1,180,2,0.4171,berkeley,S1.2,2,1,anodal,459
386,spd,1,180,2,0.4171,berkeley,S1.2,1,1,anodal,460
386,spd,1,180,2,0.4171,berkeley,S1.2,1,1,anodal,461
533,acc,1,180,2,0.4171,berkeley,S1.2,2,1,anodal,462
427,acc,1,180,2,0.4171,berkeley,S1.2,2,1,anodal,463
480,acc,1,180,2,0.4171,berkeley,S1.2,1,1,anodal,464
373,spd,1,180,2,0.4171,berkeley,S1.2,2,1,anodal,465
387,spd,1,180,2,0.4171,berkeley,S1.2,1,1,anodal,466
453,acc,1,180,2,0.4171,berkeley,S1.2,1,1,anodal,467
426,spd,1,180,2,0.4171,berkeley,S1.2,2,1,anodal,468
360,spd,1,180,2,0.4171,berkeley,S1.2,1,1,anodal,469
427,acc,1,180,2,0.4171,berkeley,S1.2,1,1,anodal,470
440,acc,1,180,2,0.4171,berkeley,S1.2,2,1,anodal,471
733,acc,1,180,2,0.4171,berkeley,S1.2,2,1,anodal,472
413,spd,1,180,2,0.4171,berkeley,S1.2,1,1,anodal,473
480,spd,1,180,2,0.4171,berkeley,S1.2,1,1,anodal,474
413,acc,1,180,2,0.4171,berkeley,S1.2,2,1,anodal,475
413,acc,1,180,2,0.4171,berkeley,S1.2,2,1,anodal,476
480,spd,1,180,2,0.4171,berkeley,S1.2,2,1,anodal,477
386,spd,1,180,2,0.4171,berkeley,S1.2,2,1,anodal,478
493,acc,1,180,2,0.4171,berkeley,S1.2,1,1,anodal,479
334,spd,1,180,2,0.4171,berkeley,S1.2,1,1,anodal,480
387,acc,1,180,2,0.4171,berkeley,S1.2,2,1,anodal,481
373,spd,1,180,2,0.4171,berkeley,S1.2,2,1,anodal,482
493,spd,1,180,2,0.4171,berkeley,S1.2,1,1,anodal,483
454,spd,1,180,2,0.4171,berkeley,S1.2,1,1,anodal,484
333,spd,1,180,2,0.4171,berkeley,S1.2,2,1,anodal,485
386,spd,1,180,2,0.4171,berkeley,S1.2,1,1,anodal,486
480,acc,1,180,2,0.4171,berkeley,S1.2,1,1,anodal,487
453,acc,1,180,2,0.4171,berkeley,S1.2,2,1,anodal,488
400,spd,1,180,2,0.4171,berkeley,S1.2,1,1,anodal,489
453,spd,1,180,2,0.4171,berkeley,S1.2,2,1,anodal,490
400,spd,1,180,2,0.4171,berkeley,S1.2,1,1,anodal,491
373,acc,1,180,2,0.4171,berkeley,S1.2,2,1,anodal,492
479,spd,1,180,2,0.4171,berkeley,S1.2,2,1,anodal,493
426,acc,1,180,2,0.4171,berkeley,S1.2,1,1,anodal,494
400,spd,1,180,2,0.4171,berkeley,S1.2,2,1,anodal,495
387,spd,1,180,2,0.4171,berkeley,S1.2,1,1,anodal,496
400,acc,1,180,2,0.4171,berkeley,S1.2,1,1,anodal,497
573,spd,1,180,2,0.4171,berkeley,S1.2,1,1,anodal,498
453,spd,1,180,2,0.4171,berkeley,S1.2,2,1,anodal,499
453,spd,1,180,2,0.4171,berkeley,S1.2,2,1,anodal,500
399,acc,1,180,2,0.4171,berkeley,S1.2,1,1,anodal,501
453,spd,1,180,2,0.4171,berkeley,S1.2,2,1,anodal,502
493,acc,1,180,2,0.4171,berkeley,S1.2,2,1,anodal,503
360,spd,1,180,2,0.4171,berkeley,S1.2,1,1,anodal,504
506,acc,1,180,2,0.4171,berkeley,S1.2,1,1,anodal,505
360,spd,1,180,2,0.4171,berkeley,S1.2,2,1,anodal,506
400,acc,1,180,2,0.4171,berkeley,S1.2,1,1,anodal,507
373,spd,1,180,2,0.4171,berkeley,S1.2,2,1,anodal,508
506,acc,1,180,2,0.4171,berkeley,S1.2,2,1,anodal,509
506,spd,1,180,2,0.4171,berkeley,S1.2,2,1,anodal,510
453,spd,1,180,2,0.4171,berkeley,S1.2,1,1,anodal,511
440,acc,1,180,2,0.4171,berkeley,S1.2,1,1,anodal,512
373,spd,1,180,2,0.4171,berkeley,S1.2,2,1,anodal,513
427,spd,1,180,2,0.4171,berkeley,S1.2,1,1,anodal,514
440,acc,1,180,2,0.4171,berkeley,S1.2,2,1,anodal,515
440,spd,1,180,2,0.4171,berkeley,S1.2,1,1,anodal,516
427,spd,1,180,2,0.4171,berkeley,S1.2,1,1,anodal,517
440,spd,1,180,2,0.4171,berkeley,S1.2,2,1,anodal,518
400,acc,1,180,2,0.4171,berkeley,S1.2,1,1,anodal,519
546,acc,1,180,2,0.4171,berkeley,S1.2,2,1,anodal,520
439,spd,1,180,2,0.4171,berkeley,S1.2,2,1,anodal,521
493,spd,1,180,2,0.4171,berkeley,S1.2,2,1,anodal,522
519,spd,1,180,2,0.4171,berkeley,S1.2,1,1,anodal,523
533,spd,1,180,2,0.4171,berkeley,S1.2,1,1,anodal,524
387,spd,1,180,2,0.4171,berkeley,S1.2,2,1,anodal,525
387,spd,1,180,2,0.4171,berkeley,S1.2,1,1,anodal,526
520,acc,1,180,2,0.4171,berkeley,S1.2,2,1,anodal,527
400,spd,1,180,2,0.4171,berkeley,S1.2,1,1,anodal,528
440,acc,1,180,2,0.4171,berkeley,S1.2,2,1,anodal,529
387,spd,1,180,2,0.4171,berkeley,S1.2,1,1,anodal,530
467,acc,1,180,2,0.4171,berkeley,S1.2,2,1,anodal,531
400,acc,1,180,2,0.4171,berkeley,S1.2,1,1,anodal,532
666,spd,1,180,2,0.4171,berkeley,S1.2,1,1,anodal,533
426,spd,1,180,2,0.4171,berkeley,S1.2,2,1,anodal,534
399,spd,1,180,2,0.4171,berkeley,S1.2,1,1,anodal,535
426,spd,1,180,2,0.4171,berkeley,S1.2,2,1,anodal,536
453,acc,1,180,2,0.4171,berkeley,S1.2,2,1,anodal,537
466,spd,1,180,2,0.4171,berkeley,S1.2,2,1,anodal,538
466,acc,1,180,2,0.4171,berkeley,S1.2,1,1,anodal,539
413,spd,1,180,2,0.4171,berkeley,S1.2,1,1,anodal,540
453,spd,1,180,2,0.4171,berkeley,S1.2,2,1,anodal,541
360,acc,1,180,2,0.4171,berkeley,S1.2,1,1,anodal,542
480,acc,1,180,2,0.4171,berkeley,S1.2,1,1,anodal,543
534,acc,1,180,2,0.4171,berkeley,S1.2,2,1,anodal,544
440,spd,1,180,2,0.4171,berkeley,S1.2,1,1,anodal,545
427,acc,1,180,2,0.4171,berkeley,S1.2,2,1,anodal,546
467,spd,1,180,2,0.4171,berkeley,S1.2,2,1,anodal,547
414,acc,1,180,2,0.4171,berkeley,S1.2,1,1,anodal,548
427,spd,1,180,2,0.4171,berkeley,S1.2,1,1,anodal,549
493,acc,1,180,2,0.4171,berkeley,S1.2,1,1,anodal,550
399,spd,1,180,2,0.4171,berkeley,S1.2,2,1,anodal,551
426,spd,1,180,2,0.4171,berkeley,S1.2,2,1,anodal,552
400,acc,1,180,2,0.4171,berkeley,S1.2,1,1,anodal,553
413,spd,1,180,2,0.4171,berkeley,S1.2,2,1,anodal,554
480,spd,1,180,2,0.4171,berkeley,S1.2,1,1,anodal,555
400,spd,1,180,2,0.4171,berkeley,S1.2,2,1,anodal,556
706,spd,1,180,2,0.4171,berkeley,S1.2,2,1,anodal,557
427,spd,1,180,2,0.4171,berkeley,S1.2,1,1,anodal,558
400,spd,1,180,2,0.4171,berkeley,S1.2,2,1,anodal,559
453,acc,1,180,2,0.4171,berkeley,S1.2,1,1,anodal,560
480,acc,1,180,2,0.4171,berkeley,S1.2,1,1,anodal,561
386,acc,1,180,2,0.4171,berkeley,S1.2,2,1,anodal,562
493,acc,1,180,2,0.4171,berkeley,S1.2,2,1,anodal,563
360,spd,1,180,2,0.4171,berkeley,S1.2,1,1,anodal,564
386,spd,1,180,2,0.4171,berkeley,S1.2,2,1,anodal,565
493,acc,1,180,2,0.4171,berkeley,S1.2,1,1,anodal,566
374,spd,1,180,2,0.4171,berkeley,S1.2,2,1,anodal,567
400,acc,1,180,2,0.4171,berkeley,S1.2,1,1,anodal,568
573,spd,1,180,2,0.4171,berkeley,S1.2,1,1,anodal,569
413,spd,1,180,2,0.4171,berkeley,S1.2,2,1,anodal,570
453,acc,1,180,2,0.4171,berkeley,S1.2,2,1,anodal,571
400,acc,1,180,2,0.4171,berkeley,S1.2,1,1,anodal,572
439,acc,1,180,2,0.4171,berkeley,S1.2,1,1,anodal,573
400,spd,1,180,2,0.4171,berkeley,S1.2,2,1,anodal,574
533,acc,1,180,2,0.4171,berkeley,S1.2,2,1,anodal,575
453,acc,1,180,2,0.4171,berkeley,S1.2,1,1,anodal,576
359,spd,1,180,2,0.4171,berkeley,S1.2,2,1,anodal,577
386,spd,1,180,2,0.4171,berkeley,S1.2,1,1,anodal,578
373,spd,1,180,2,0.4171,berkeley,S1.2,2,1,anodal,579
439,acc,1,180,2,0.4171,berkeley,S1.2,1,1,anodal,580
506,acc,1,180,2,0.4171,berkeley,S1.2,1,1,anodal,581
480,spd,1,180,2,0.4171,berkeley,S1.2,2,1,anodal,582
413,spd,1,180,2,0.4171,berkeley,S1.2,1,1,anodal,583
360,acc,1,180,2,0.4171,berkeley,S1.2,2,1,anodal,584
400,spd,1,180,2,0.4171,berkeley,S1.2,2,1,anodal,585
386,acc,1,180,2,0.4171,berkeley,S1.2,1,1,anodal,586
359,spd,1,180,2,0.4171,berkeley,S1.2,2,1,anodal,587
453,spd,1,180,2,0.4171,berkeley,S1.2,1,1,anodal,588
559,acc,1,180,2,0.4171,berkeley,S1.2,1,1,anodal,589
440,acc,1,180,2,0.4171,berkeley,S1.2,2,1,anodal,590
413,acc,1,180,2,0.4171,berkeley,S1.2,1,1,anodal,591
373,acc,1,180,2,0.4171,berkeley,S1.2,2,1,anodal,592
467,acc,1,180,2,0.4171,berkeley,S1.2,2,1,anodal,593
427,acc,1,180,2,0.4171,berkeley,S1.2,1,1,anodal,594
534,acc,1,180,2,0.4171,berkeley,S1.2,1,1,anodal,595
373,spd,1,180,2,0.4171,berkeley,S1.2,2,1,anodal,596
479,acc,1,180,2,0.4171,berkeley,S1.2,2,1,anodal,597
400,spd,1,180,2,0.4171,berkeley,S1.2,2,1,anodal,598
400,acc,1,180,2,0.4171,berkeley,S1.2,1,1,anodal,599
413,spd,1,180,2,0.4171,berkeley,S1.2,1,1,anodal,600
666,acc,1,180,1,0.2764,berkeley,S10.1,2,10,anodal,1
827,acc,1,180,1,0.2764,berkeley,S10.1,2,10,anodal,2
360,spd,1,180,1,0.2764,berkeley,S10.1,1,10,anodal,3
892,acc,1,180,1,0.2764,berkeley,S10.1,1,10,anodal,4
946,acc,1,180,1,0.2764,berkeley,S10.1,1,10,anodal,5
1093,acc,1,180,1,0.2764,berkeley,S10.1,1,10,anodal,6
547,spd,1,180,1,0.2764,berkeley,S10.1,2,10,anodal,7
1106,acc,1,180,1,0.2764,berkeley,S10.1,2,10,anodal,8
866,acc,1,180,1,0.2764,berkeley,S10.1,2,10,anodal,9
453,spd,1,180,1,0.2764,berkeley,S10.1,1,10,anodal,10
733,acc,1,180,1,0.2764,berkeley,S10.1,2,10,anodal,11
1013,spd,1,180,1,0.2764,berkeley,S10.1,1,10,anodal,12
546,spd,1,180,1,0.2764,berkeley,S10.1,2,10,anodal,13
586,acc,1,180,1,0.2764,berkeley,S10.1,1,10,anodal,14
706,spd,1,180,1,0.2764,berkeley,S10.1,1,10,anodal,15
520,acc,1,180,1,0.2764,berkeley,S10.1,2,10,anodal,16
680,spd,0,180,1,0.2764,berkeley,S10.1,2,10,anodal,17
787,spd,1,180,1,0.2764,berkeley,S10.1,1,10,anodal,18
600,acc,1,180,1,0.2764,berkeley,S10.1,2,10,anodal,19
800,spd,1,180,1,0.2764,berkeley,S10.1,1,10,anodal,20
759,acc,1,180,1,0.2764,berkeley,S10.1,1,10,anodal,21
813,spd,1,180,1,0.2764,berkeley,S10.1,2,10,anodal,22
467,spd,1,180,1,0.2764,berkeley,S10.1,1,10,anodal,23
547,spd,1,180,1,0.2764,berkeley,S10.1,2,10,anodal,24
573,acc,1,180,1,0.2764,berkeley,S10.1,1,10,anodal,25
546,spd,0,180,1,0.2764,berkeley,S10.1,2,10,anodal,26
493,spd,1,180,1,0.2764,berkeley,S10.1,2,10,anodal,27
866,acc,0,180,1,0.2764,berkeley,S10.1,1,10,anodal,28
653,spd,1,180,1,0.2764,berkeley,S10.1,1,10,anodal,29
839,acc,1,180,1,0.2764,berkeley,S10.1,2,10,anodal,30
639,acc,1,180,1,0.2764,berkeley,S10.1,1,10,anodal,31
680,spd,0,180,1,0.2764,berkeley,S10.1,2,10,anodal,32
1173,acc,1,180,1,0.2764,berkeley,S10.1,1,10,anodal,33
680,spd,1,180,1,0.2764,berkeley,S10.1,1,10,anodal,34
506,acc,1,180,1,0.2764,berkeley,S10.1,2,10,anodal,35
786,spd,1,180,1,0.2764,berkeley,S10.1,2,10,anodal,36
600,spd,1,180,1,0.2764,berkeley,S10.1,1,10,anodal,37
946,acc,1,180,1,0.2764,berkeley,S10.1,2,10,anodal,38
720,spd,1,180,1,0.2764,berkeley,S10.1,2,10,anodal,39
706,spd,1,180,1,0.2764,berkeley,S10.1,1,10,anodal,40
680,spd,1,180,1,0.2764,berkeley,S10.1,1,10,anodal,41
533,spd,1,180,1,0.2764,berkeley,S10.1,2,10,anodal,42
547,acc,1,180,1,0.2764,berkeley,S10.1,1,10,anodal,43
587,spd,1,180,1,0.2764,berkeley,S10.1,2,10,anodal,44
813,spd,1,180,1,0.2764,berkeley,S10.1,2,10,anodal,45
586,spd,1,180,1,0.2764,berkeley,S10.1,1,10,anodal,46
773,acc,1,180,1,0.2764,berkeley,S10.1,1,10,anodal,47
533,acc,1,180,1,0.2764,berkeley,S10.1,2,10,anodal,48
893,acc,1,180,1,0.2764,berkeley,S10.1,1,10,anodal,49
746,spd,1,180,1,0.2764,berkeley,S10.1,1,10,anodal,50
586,spd,1,180,1,0.2764,berkeley,S10.1,2,10,anodal,51
919,spd,1,180,1,0.2764,berkeley,S10.1,2,10,anodal,52
613,acc,1,180,1,0.2764,berkeley,S10.1,1,10,anodal,53
559,spd,1,180,1,0.2764,berkeley,S10.1,1,10,anodal,54
493,acc,1,180,1,0.2764,berkeley,S10.1,2,10,anodal,55
547,spd,1,180,1,0.2764,berkeley,S10.1,2,10,anodal,56
693,acc,1,180,1,0.2764,berkeley,S10.1,1,10,anodal,57
466,spd,1,180,1,0.2764,berkeley,S10.1,2,10,anodal,58
546,spd,1,180,1,0.2764,berkeley,S10.1,1,10,anodal,59
560,spd,0,180,1,0.2764,berkeley,S10.1,2,10,anodal,60
626,spd,0,180,1,0.2764,berkeley,S10.1,2,10,anodal,61
560,acc,0,180,1,0.2764,berkeley,S10.1,1,10,anodal,62
787,spd,1,180,1,0.2764,berkeley,S10.1,1,10,anodal,63
613,spd,1,180,1,0.2764,berkeley,S10.1,2,10,anodal,64
573,spd,1,180,1,0.2764,berkeley,S10.1,1,10,anodal,65
547,spd,1,180,1,0.2764,berkeley,S10.1,2,10,anodal,66
600,spd,1,180,1,0.2764,berkeley,S10.1,2,10,anodal,67
520,spd,1,180,1,0.2764,berkeley,S10.1,1,10,anodal,68
866,acc,1,180,1,0.2764,berkeley,S10.1,1,10,anodal,69
827,acc,1,180,1,0.2764,berkeley,S10.1,2,10,anodal,70
960,spd,1,180,1,0.2764,berkeley,S10.1,1,10,anodal,71
880,spd,1,180,1,0.2764,berkeley,S10.1,2,10,anodal,72
853,spd,1,180,1,0.2764,berkeley,S10.1,2,10,anodal,73
666,acc,1,180,1,0.2764,berkeley,S10.1,1,10,anodal,74
586,acc,1,180,1,0.2764,berkeley,S10.1,1,10,anodal,75
599,acc,1,180,1,0.2764,berkeley,S10.1,2,10,anodal,76
466,spd,1,180,1,0.2764,berkeley,S10.1,2,10,anodal,77
520,spd,1,180,1,0.2764,berkeley,S10.1,2,10,anodal,78
547,acc,1,180,1,0.2764,berkeley,S10.1,1,10,anodal,79
720,acc,1,180,1,0.2764,berkeley,S10.1,1,10,anodal,80
707,spd,1,180,1,0.2764,berkeley,S10.1,1,10,anodal,81
827,spd,0,180,1,0.2764,berkeley,S10.1,2,10,anodal,82
746,acc,1,180,1,0.2764,berkeley,S10.1,1,10,anodal,83
1039,acc,1,180,1,0.2764,berkeley,S10.1,2,10,anodal,84
813,acc,1,180,1,0.2764,berkeley,S10.1,1,10,anodal,85
827,acc,1,180,1,0.2764,berkeley,S10.1,2,10,anodal,86
920,spd,1,180,1,0.2764,berkeley,S10.1,2,10,anodal,87
533,acc,1,180,1,0.2764,berkeley,S10.1,1,10,anodal,88
706,acc,1,180,1,0.2764,berkeley,S10.1,2,10,anodal,89
533,spd,1,180,1,0.2764,berkeley,S10.1,1,10,anodal,90
720,acc,1,180,1,0.2764,berkeley,S10.1,1,10,anodal,91
746,acc,1,180,1,0.2764,berkeley,S10.1,2,10,anodal,92
573,spd,1,180,1,0.2764,berkeley,S10.1,2,10,anodal,93
493,spd,1,180,1,0.2764,berkeley,S10.1,1,10,anodal,94
1052,acc,1,180,1,0.2764,berkeley,S10.1,1,10,anodal,95
520,spd,1,180,1,0.2764,berkeley,S10.1,2,10,anodal,96
573,spd,1,180,1,0.2764,berkeley,S10.1,1,10,anodal,97
440,spd,1,180,1,0.2764,berkeley,S10.1,2,10,anodal,98
587,spd,1,180,1,0.2764,berkeley,S10.1,1,10,anodal,99
626,acc,1,180,1,0.2764,berkeley,S10.1,2,10,anodal,100
706,spd,1,180,1,0.2764,berkeley,S10.1,1,10,anodal,101
706,spd,1,180,1,0.2764,berkeley,S10.1,2,10,anodal,102
440,spd,1,180,1,0.2764,berkeley,S10.1,1,10,anodal,103
546,spd,1,180,1,0.2764,berkeley,S10.1,2,10,anodal,104
546,acc,1,180,1,0.2764,berkeley,S10.1,1,10,anodal,105
946,acc,1,180,1,0.2764,berkeley,S10.1,1,10,anodal,106
693,spd,1,180,1,0.2764,berkeley,S10.1,2,10,anodal,107
880,acc,1,180,1,0.2764,berkeley,S10.1,2,10,anodal,108
827,acc,1,180,1,0.2764,berkeley,S10.1,2,10,anodal,109
840,acc,0,180,1,0.2764,berkeley,S10.1,1,10,anodal,110
680,acc,0,180,1,0.2764,berkeley,S10.1,1,10,anodal,111
667,spd,1,180,1,0.2764,berkeley,S10.1,2,10,anodal,112
707,acc,1,180,1,0.2764,berkeley,S10.1,1,10,anodal,113
773,spd,1,180,1,0.2764,berkeley,S10.1,1,10,anodal,114
666,spd,1,180,1,0.2764,berkeley,S10.1,2,10,anodal,115
506,acc,1,180,1,0.2764,berkeley,S10.1,2,10,anodal,116
733,acc,1,180,1,0.2764,berkeley,S10.1,2,10,anodal,117
786,acc,1,180,1,0.2764,berkeley,S10.1,1,10,anodal,118
653,spd,1,180,1,0.2764,berkeley,S10.1,1,10,anodal,119
680,acc,1,180,1,0.2764,berkeley,S10.1,2,10,anodal,120
666,spd,1,180,1,0.2764,berkeley,S10.1,1,10,anodal,121
573,acc,1,180,1,0.2764,berkeley,S10.1,2,10,anodal,122
600,acc,1,180,1,0.2764,berkeley,S10.1,2,10,anodal,123
653,acc,1,180,1,0.2764,berkeley,S10.1,1,10,anodal,124
666,spd,1,180,1,0.2764,berkeley,S10.1,2,10,anodal,125
560,spd,0,180,1,0.2764,berkeley,S10.1,1,10,anodal,126
546,acc,1,180,1,0.2764,berkeley,S10.1,2,10,anodal,127
533,spd,1,180,1,0.2764,berkeley,S10.1,1,10,anodal,128
613,acc,1,180,1,0.2764,berkeley,S10.1,2,10,anodal,129
560,spd,1,180,1,0.2764,berkeley,S10.1,1,10,anodal,130
467,acc,1,180,1,0.2764,berkeley,S10.1,2,10,anodal,131
600,spd,1,180,1,0.2764,berkeley,S10.1,1,10,anodal,132
933,acc,1,180,1,0.2764,berkeley,S10.1,1,10,anodal,133
893,acc,1,180,1,0.2764,berkeley,S10.1,1,10,anodal,134
653,spd,1,180,1,0.2764,berkeley,S10.1,2,10,anodal,135
1173,acc,1,180,1,0.2764,berkeley,S10.1,2,10,anodal,136
773,acc,1,180,1,0.2764,berkeley,S10.1,2,10,anodal,137
573,acc,1,180,1,0.2764,berkeley,S10.1,2,10,anodal,138
839,spd,1,180,1,0.2764,berkeley,S10.1,1,10,anodal,139
439,spd,1,180,1,0.2764,berkeley,S10.1,1,10,anodal,140
586,spd,1,180,1,0.2764,berkeley,S10.1,1,10,anodal,141
613,spd,1,180,1,0.2764,berkeley,S10.1,2,10,anodal,142
520,acc,1,180,1,0.2764,berkeley,S10.1,2,10,anodal,143
639,spd,1,180,1,0.2764,berkeley,S10.1,1,10,anodal,144
840,acc,1,180,1,0.2764,berkeley,S10.1,2,10,anodal,145
706,acc,1,180,1,0.2764,berkeley,S10.1,1,10,anodal,146
640,spd,1,180,1,0.2764,berkeley,S10.1,1,10,anodal,147
840,acc,0,180,1,0.2764,berkeley,S10.1,2,10,anodal,148
853,acc,1,180,1,0.2764,berkeley,S10.1,1,10,anodal,149
826,spd,0,180,1,0.2764,berkeley,S10.1,2,10,anodal,150
1119,acc,0,180,1,0.2764,berkeley,S10.1,2,10,anodal,151
866,acc,0,180,1,0.2764,berkeley,S10.1,1,10,anodal,152
986,spd,0,180,1,0.2764,berkeley,S10.1,2,10,anodal,153
787,acc,1,180,1,0.2764,berkeley,S10.1,1,10,anodal,154
827,acc,1,180,1,0.2764,berkeley,S10.1,1,10,anodal,155
1346,acc,1,180,1,0.2764,berkeley,S10.1,2,10,anodal,156
1186,acc,1,180,1,0.2764,berkeley,S10.1,1,10,anodal,157
1067,spd,1,180,1,0.2764,berkeley,S10.1,2,10,anodal,158
586,acc,1,180,1,0.2764,berkeley,S10.1,2,10,anodal,159
520,spd,1,180,1,0.2764,berkeley,S10.1,1,10,anodal,160
520,spd,1,180,1,0.2764,berkeley,S10.1,1,10,anodal,161
533,acc,0,180,1,0.2764,berkeley,S10.1,1,10,anodal,162
653,acc,1,180,1,0.2764,berkeley,S10.1,2,10,anodal,163
426,spd,1,180,1,0.2764,berkeley,S10.1,2,10,anodal,164
959,acc,1,180,1,0.2764,berkeley,S10.1,2,10,anodal,165
559,spd,1,180,1,0.2764,berkeley,S10.1,1,10,anodal,166
506,acc,1,180,1,0.2764,berkeley,S10.1,1,10,anodal,167
853,spd,1,180,1,0.2764,berkeley,S10.1,2,10,anodal,168
840,acc,1,180,1,0.2764,berkeley,S10.1,1,10,anodal,169
453,spd,1,180,1,0.2764,berkeley,S10.1,2,10,anodal,170
946,acc,1,180,1,0.2764,berkeley,S10.1,2,10,anodal,171
466,spd,1,180,1,0.2764,berkeley,S10.1,1,10,anodal,172
440,acc,1,180,1,0.2764,berkeley,S10.1,2,10,anodal,173
493,acc,1,180,1,0.2764,berkeley,S10.1,1,10,anodal,174
800,acc,1,180,1,0.2764,berkeley,S10.1,1,10,anodal,175
1080,acc,1,180,1,0.2764,berkeley,S10.1,2,10,anodal,176
453,spd,1,180,1,0.2764,berkeley,S10.1,2,10,anodal,177
839,acc,1,180,1,0.2764,berkeley,S10.1,1,10,anodal,178
1333,acc,1,180,1,0.2764,berkeley,S10.1,2,10,anodal,179
653,spd,1,180,1,0.2764,berkeley,S10.1,1,10,anodal,180
559,spd,1,180,1,0.2764,berkeley,S10.1,1,10,anodal,181
480,spd,1,180,1,0.2764,berkeley,S10.1,2,10,anodal,182
826,acc,1,180,1,0.2764,berkeley,S10.1,1,10,anodal,183
1040,acc,0,180,1,0.2764,berkeley,S10.1,2,10,anodal,184
533,acc,1,180,1,0.2764,berkeley,S10.1,1,10,anodal,185
1172,acc,0,180,1,0.2764,berkeley,S10.1,2,10,anodal,186
493,spd,0,180,1,0.2764,berkeley,S10.1,1,10,anodal,187
986,spd,0,180,1,0.2764,berkeley,S10.1,2,10,anodal,188
773,acc,0,180,1,0.2764,berkeley,S10.1,2,10,anodal,189
653,spd,1,180,1,0.2764,berkeley,S10.1,1,10,anodal,190
813,acc,0,180,1,0.2764,berkeley,S10.1,2,10,anodal,191
906,spd,1,180,1,0.2764,berkeley,S10.1,1,10,anodal,192
1119,acc,1,180,1,0.2764,berkeley,S10.1,1,10,anodal,193
653,acc,1,180,1,0.2764,berkeley,S10.1,1,10,anodal,194
627,spd,0,180,1,0.2764,berkeley,S10.1,2,10,anodal,195
453,spd,0,180,1,0.2764,berkeley,S10.1,2,10,anodal,196
906,acc,0,180,1,0.2764,berkeley,S10.1,2,10,anodal,197
932,acc,0,180,1,0.2764,berkeley,S10.1,2,10,anodal,198
1626,spd,0,180,1,0.2764,berkeley,S10.1,1,10,anodal,199
667,acc,1,180,1,0.2764,berkeley,S10.1,1,10,anodal,200
867,acc,0,180,1,0.2764,berkeley,S10.1,2,10,anodal,201
973,acc,1,180,1,0.2764,berkeley,S10.1,1,10,anodal,202
960,spd,1,180,1,0.2764,berkeley,S10.1,1,10,anodal,203
653,acc,0,180,1,0.2764,berkeley,S10.1,2,10,anodal,204
826,spd,1,180,1,0.2764,berkeley,S10.1,2,10,anodal,205
466,spd,0,180,1,0.2764,berkeley,S10.1,1,10,anodal,206
440,spd,1,180,1,0.2764,berkeley,S10.1,1,10,anodal,207
560,spd,1,180,1,0.2764,berkeley,S10.1,2,10,anodal,208
534,spd,1,180,1,0.2764,berkeley,S10.1,1,10,anodal,209
866,acc,1,180,1,0.2764,berkeley,S10.1,1,10,anodal,210
493,acc,1,180,1,0.2764,berkeley,S10.1,2,10,anodal,211
533,spd,1,180,1,0.2764,berkeley,S10.1,2,10,anodal,212
520,acc,1,180,1,0.2764,berkeley,S10.1,1,10,anodal,213
493,acc,1,180,1,0.2764,berkeley,S10.1,2,10,anodal,214
1159,acc,1,180,1,0.2764,berkeley,S10.1,2,10,anodal,215
600,acc,1,180,1,0.2764,berkeley,S10.1,1,10,anodal,216
667,acc,1,180,1,0.2764,berkeley,S10.1,1,10,anodal,217
1080,acc,1,180,1,0.2764,berkeley,S10.1,2,10,anodal,218
560,spd,1,180,1,0.2764,berkeley,S10.1,1,10,anodal,219
573,acc,1,180,1,0.2764,berkeley,S10.1,2,10,anodal,220
720,spd,1,180,1,0.2764,berkeley,S10.1,2,10,anodal,221
946,spd,1,180,1,0.2764,berkeley,S10.1,2,10,anodal,222
506,spd,1,180,1,0.2764,berkeley,S10.1,1,10,anodal,223
586,spd,1,180,1,0.2764,berkeley,S10.1,1,10,anodal,224
520,spd,1,180,1,0.2764,berkeley,S10.1,1,10,anodal,225
493,spd,1,180,1,0.2764,berkeley,S10.1,2,10,anodal,226
719,spd,1,180,1,0.2764,berkeley,S10.1,2,10,anodal,227
506,spd,1,180,1,0.2764,berkeley,S10.1,1,10,anodal,228
586,spd,0,180,1,0.2764,berkeley,S10.1,2,10,anodal,229
506,spd,1,180,1,0.2764,berkeley,S10.1,1,10,anodal,230
853,acc,1,180,1,0.2764,berkeley,S10.1,1,10,anodal,231
760,acc,1,180,1,0.2764,berkeley,S10.1,2,10,anodal,232
933,acc,0,180,1,0.2764,berkeley,S10.1,1,10,anodal,233
653,spd,1,180,1,0.2764,berkeley,S10.1,2,10,anodal,234
827,acc,1,180,1,0.2764,berkeley,S10.1,1,10,anodal,235
933,acc,1,180,1,0.2764,berkeley,S10.1,2,10,anodal,236
1199,acc,1,180,1,0.2764,berkeley,S10.1,2,10,anodal,237
546,spd,1,180,1,0.2764,berkeley,S10.1,1,10,anodal,238
639,spd,1,180,1,0.2764,berkeley,S10.1,1,10,anodal,239
613,acc,0,180,1,0.2764,berkeley,S10.1,2,10,anodal,240
587,spd,1,180,1,0.2764,berkeley,S10.1,1,10,anodal,241
733,spd,0,180,1,0.2764,berkeley,S10.1,2,10,anodal,242
679,acc,1,180,1,0.2764,berkeley,S10.1,1,10,anodal,243
626,spd,0,180,1,0.2764,berkeley,S10.1,2,10,anodal,244
879,acc,1,180,1,0.2764,berkeley,S10.1,1,10,anodal,245
866,acc,0,180,1,0.2764,berkeley,S10.1,2,10,anodal,246
653,spd,0,180,1,0.2764,berkeley,S10.1,2,10,anodal,247
587,spd,0,180,1,0.2764,berkeley,S10.1,1,10,anodal,248
720,spd,0,180,1,0.2764,berkeley,S10.1,2,10,anodal,249
613,acc,1,180,1,0.2764,berkeley,S10.1,1,10,anodal,250
733,spd,1,180,1,0.2764,berkeley,S10.1,1,10,anodal,251
759,acc,0,180,1,0.2764,berkeley,S10.1,2,10,anodal,252
866,spd,0,180,1,0.2764,berkeley,S10.1,1,10,anodal,253
920,acc,1,180,1,0.2764,berkeley,S10.1,2,10,anodal,254
1399,spd,1,180,1,0.2764,berkeley,S10.1,2,10,anodal,255
933,spd,0,180,1,0.2764,berkeley,S10.1,1,10,anodal,256
1039,acc,0,180,1,0.2764,berkeley,S10.1,1,10,anodal,257
1066,acc,0,180,1,0.2764,berkeley,S10.1,1,10,anodal,258
639,spd,0,180,1,0.2764,berkeley,S10.1,2,10,anodal,259
1013,acc,1,180,1,0.2764,berkeley,S10.1,2,10,anodal,260
1280,spd,0,180,1,0.2764,berkeley,S10.1,1,10,anodal,261
680,acc,0,180,1,0.2764,berkeley,S10.1,2,10,anodal,262
1013,acc,1,180,1,0.2764,berkeley,S10.1,1,10,anodal,263
999,acc,1,180,1,0.2764,berkeley,S10.1,2,10,anodal,264
866,acc,1,180,1,0.2764,berkeley,S10.1,1,10,anodal,265
653,spd,1,180,1,0.2764,berkeley,S10.1,1,10,anodal,266
1280,acc,1,180,1,0.2764,berkeley,S10.1,2,10,anodal,267
1226,spd,1,180,1,0.2764,berkeley,S10.1,2,10,anodal,268
733,spd,1,180,1,0.2764,berkeley,S10.1,1,10,anodal,269
693,spd,0,180,1,0.2764,berkeley,S10.1,2,10,anodal,270
546,spd,1,180,1,0.2764,berkeley,S10.1,1,10,anodal,271
666,spd,0,180,1,0.2764,berkeley,S10.1,2,10,anodal,272
559,acc,0,180,1,0.2764,berkeley,S10.1,2,10,anodal,273
720,spd,1,180,1,0.2764,berkeley,S10.1,2,10,anodal,274
773,acc,0,180,1,0.2764,berkeley,S10.1,1,10,anodal,275
879,acc,0,180,1,0.2764,berkeley,S10.1,1,10,anodal,276
946,acc,1,180,1,0.2764,berkeley,S10.1,2,10,anodal,277
560,spd,1,180,1,0.2764,berkeley,S10.1,1,10,anodal,278
773,acc,1,180,1,0.2764,berkeley,S10.1,1,10,anodal,279
693,acc,1,180,1,0.2764,berkeley,S10.1,2,10,anodal,280
773,acc,1,180,1,0.2764,berkeley,S10.1,2,10,anodal,281
693,spd,0,180,1,0.2764,berkeley,S10.1,1,10,anodal,282
1213,spd,0,180,1,0.2764,berkeley,S10.1,1,10,anodal,283
946,spd,0,180,1,0.2764,berkeley,S10.1,2,10,anodal,284
919,spd,1,180,1,0.2764,berkeley,S10.1,2,10,anodal,285
733,acc,1,180,1,0.2764,berkeley,S10.1,2,10,anodal,286
787,spd,1,180,1,0.2764,berkeley,S10.1,1,10,anodal,287
547,acc,1,180,1,0.2764,berkeley,S10.1,1,10,anodal,288
840,acc,1,180,1,0.2764,berkeley,S10.1,1,10,anodal,289
947,acc,1,180,1,0.2764,berkeley,S10.1,2,10,anodal,290
826,acc,0,180,1,0.2764,berkeley,S10.1,1,10,anodal,291
1093,acc,1,180,1,0.2764,berkeley,S10.1,2,10,anodal,292
800,spd,1,180,1,0.2764,berkeley,S10.1,2,10,anodal,293
760,spd,1,180,1,0.2764,berkeley,S10.1,2,10,anodal,294
653,acc,1,180,1,0.2764,berkeley,S10.1,1,10,anodal,295
667,spd,1,180,1,0.2764,berkeley,S10.1,1,10,anodal,296
746,acc,1,180,1,0.2764,berkeley,S10.1,1,10,anodal,297
600,spd,1,180,1,0.2764,berkeley,S10.1,2,10,anodal,298
880,spd,1,180,1,0.2764,berkeley,S10.1,2,10,anodal,299
760,spd,1,180,1,0.2764,berkeley,S10.1,1,10,anodal,300
747,acc,1,180,1,0.2764,berkeley,S10.1,1,10,anodal,301
1213,spd,1,180,1,0.2764,berkeley,S10.1,2,10,anodal,302
520,spd,1,180,1,0.2764,berkeley,S10.1,1,10,anodal,303
1039,acc,1,180,1,0.2764,berkeley,S10.1,2,10,anodal,304
1412,acc,1,180,1,0.2764,berkeley,S10.1,2,10,anodal,305
959,spd,1,180,1,0.2764,berkeley,S10.1,2,10,anodal,306
506,acc,1,180,1,0.2764,berkeley,S10.1,1,10,anodal,307
560,spd,1,180,1,0.2764,berkeley,S10.1,1,10,anodal,308
533,spd,1,180,1,0.2764,berkeley,S10.1,1,10,anodal,309
466,spd,1,180,1,0.2764,berkeley,S10.1,1,10,anodal,310
453,spd,1,180,1,0.2764,berkeley,S10.1,2,10,anodal,311
507,spd,1,180,1,0.2764,berkeley,S10.1,2,10,anodal,312
1200,acc,1,180,1,0.2764,berkeley,S10.1,1,10,anodal,313
560,spd,1,180,1,0.2764,berkeley,S10.1,1,10,anodal,314
519,spd,1,180,1,0.2764,berkeley,S10.1,2,10,anodal,315
1226,acc,1,180,1,0.2764,berkeley,S10.1,2,10,anodal,316
639,spd,1,180,1,0.2764,berkeley,S10.1,1,10,anodal,317
613,spd,1,180,1,0.2764,berkeley,S10.1,1,10,anodal,318
827,acc,0,180,1,0.2764,berkeley,S10.1,2,10,anodal,319
973,acc,0,180,1,0.2764,berkeley,S10.1,2,10,anodal,320
1012,acc,0,180,1,0.2764,berkeley,S10.1,1,10,anodal,321
1079,spd,0,180,1,0.2764,berkeley,S10.1,1,10,anodal,322
813,spd,1,180,1,0.2764,berkeley,S10.1,2,10,anodal,323
800,spd,0,180,1,0.2764,berkeley,S10.1,2,10,anodal,324
1292,acc,1,180,1,0.2764,berkeley,S10.1,1,10,anodal,325
839,acc,1,180,1,0.2764,berkeley,S10.1,2,10,anodal,326
800,spd,0,180,1,0.2764,berkeley,S10.1,1,10,anodal,327
986,acc,0,180,1,0.2764,berkeley,S10.1,2,10,anodal,328
693,acc,0,180,1,0.2764,berkeley,S10.1,2,10,anodal,329
813,acc,0,180,1,0.2764,berkeley,S10.1,1,10,anodal,330
653,spd,0,180,1,0.2764,berkeley,S10.1,2,10,anodal,331
747,acc,0,180,1,0.2764,berkeley,S10.1,1,10,anodal,332
933,acc,0,180,1,0.2764,berkeley,S10.1,1,10,anodal,333
879,acc,0,180,1,0.2764,berkeley,S10.1,2,10,anodal,334
640,spd,1,180,1,0.2764,berkeley,S10.1,2,10,anodal,335
920,acc,0,180,1,0.2764,berkeley,S10.1,1,10,anodal,336
680,acc,0,180,1,0.2764,berkeley,S10.1,2,10,anodal,337
667,acc,0,180,1,0.2764,berkeley,S10.1,2,10,anodal,338
640,acc,0,180,1,0.2764,berkeley,S10.1,1,10,anodal,339
693,spd,0,180,1,0.2764,berkeley,S10.1,1,10,anodal,340
720,acc,0,180,1,0.2764,berkeley,S10.1,2,10,anodal,341
573,spd,0,180,1,0.2764,berkeley,S10.1,2,10,anodal,342
1293,spd,1,180,1,0.2764,berkeley,S10.1,1,10,anodal,343
1173,acc,1,180,1,0.2764,berkeley,S10.1,1,10,anodal,344
933,spd,1,180,1,0.2764,berkeley,S10.1,1,10,anodal,345
813,acc,1,180,1,0.2764,berkeley,S10.1,2,10,anodal,346
720,spd,1,180,1,0.2764,berkeley,S10.1,1,10,anodal,347
827,spd,1,180,1,0.2764,berkeley,S10.1,2,10,anodal,348
1280,acc,1,180,1,0.2764,berkeley,S10.1,1,10,anodal,349
653,spd,1,180,1,0.2764,berkeley,S10.1,2,10,anodal,350
493,spd,1,180,1,0.2764,berkeley,S10.1,2,10,anodal,351
507,spd,1,180,1,0.2764,berkeley,S10.1,1,10,anodal,352
560,spd,1,180,1,0.2764,berkeley,S10.1,1,10,anodal,353
946,acc,1,180,1,0.2764,berkeley,S10.1,1,10,anodal,354
627,acc,1,180,1,0.2764,berkeley,S10.1,2,10,anodal,355
520,acc,1,180,1,0.2764,berkeley,S10.1,2,10,anodal,356
906,spd,1,180,1,0.2764,berkeley,S10.1,1,10,anodal,357
507,spd,1,180,1,0.2764,berkeley,S10.1,2,10,anodal,358
533,acc,1,180,1,0.2764,berkeley,S10.1,1,10,anodal,359
1639,acc,1,180,1,0.2764,berkeley,S10.1,2,10,anodal,360
946,spd,1,180,1,0.2764,berkeley,S10.1,2,10,anodal,361
534,acc,1,180,1,0.2764,berkeley,S10.1,2,10,anodal,362
546,acc,1,180,1,0.2764,berkeley,S10.1,1,10,anodal,363
800,acc,1,180,1,0.2764,berkeley,S10.1,1,10,anodal,364
626,spd,1,180,1,0.2764,berkeley,S10.1,1,10,anodal,365
733,spd,1,180,1,0.2764,berkeley,S10.1,2,10,anodal,366
733,spd,1,180,1,0.2764,berkeley,S10.1,1,10,anodal,367
1479,acc,1,180,1,0.2764,berkeley,S10.1,2,10,anodal,368
680,spd,1,180,1,0.2764,berkeley,S10.1,1,10,anodal,369
1093,acc,0,180,1,0.2764,berkeley,S10.1,1,10,anodal,370
627,spd,0,180,1,0.2764,berkeley,S10.1,2,10,anodal,371
547,spd,0,180,1,0.2764,berkeley,S10.1,2,10,anodal,372
600,acc,0,180,1,0.2764,berkeley,S10.1,1,10,anodal,373
679,acc,0,180,1,0.2764,berkeley,S10.1,2,10,anodal,374
719,acc,1,180,1,0.2764,berkeley,S10.1,1,10,anodal,375
693,spd,0,180,1,0.2764,berkeley,S10.1,2,10,anodal,376
907,acc,0,180,1,0.2764,berkeley,S10.1,1,10,anodal,377
627,acc,0,180,1,0.2764,berkeley,S10.1,2,10,anodal,378
480,spd,0,180,1,0.2764,berkeley,S10.1,2,10,anodal,379
667,acc,1,180,1,0.2764,berkeley,S10.1,1,10,anodal,380
587,acc,0,180,1,0.2764,berkeley,S10.1,2,10,anodal,381
613,acc,0,180,1,0.2764,berkeley,S10.1,2,10,anodal,382
773,spd,0,180,1,0.2764,berkeley,S10.1,1,10,anodal,383
920,acc,0,180,1,0.2764,berkeley,S10.1,1,10,anodal,384
667,spd,0,180,1,0.2764,berkeley,S10.1,1,10,anodal,385
867,spd,0,180,1,0.2764,berkeley,S10.1,2,10,anodal,386
613,acc,1,180,1,0.2764,berkeley,S10.1,2,10,anodal,387
906,spd,0,180,1,0.2764,berkeley,S10.1,1,10,anodal,388
720,acc,1,180,1,0.2764,berkeley,S10.1,1,10,anodal,389
799,acc,1,180,1,0.2764,berkeley,S10.1,1,10,anodal,390
1119,spd,1,180,1,0.2764,berkeley,S10.1,2,10,anodal,391
1013,spd,1,180,1,0.2764,berkeley,S10.1,2,10,anodal,392
1000,acc,1,180,1,0.2764,berkeley,S10.1,2,10,anodal,393
520,spd,1,180,1,0.2764,berkeley,S10.1,1,10,anodal,394
1146,acc,0,180,1,0.2764,berkeley,S10.1,1,10,anodal,395
627,spd,0,180,1,0.2764,berkeley,S10.1,2,10,anodal,396
1013,spd,0,180,1,0.2764,berkeley,S10.1,2,10,anodal,397
667,acc,0,180,1,0.2764,berkeley,S10.1,1,10,anodal,398
707,spd,0,180,1,0.2764,berkeley,S10.1,1,10,anodal,399
653,acc,0,180,1,0.2764,berkeley,S10.1,2,10,anodal,400
520,spd,1,180,1,0.2764,berkeley,S10.1,1,10,anodal,401
746,spd,0,180,1,0.2764,berkeley,S10.1,2,10,anodal,402
480,spd,0,180,1,0.2764,berkeley,S10.1,2,10,anodal,403
547,acc,1,180,1,0.2764,berkeley,S10.1,1,10,anodal,404
493,acc,0,180,1,0.2764,berkeley,S10.1,1,10,anodal,405
493,spd,1,180,1,0.2764,berkeley,S10.1,2,10,anodal,406
853,spd,1,180,1,0.2764,berkeley,S10.1,1,10,anodal,407
653,spd,0,180,1,0.2764,berkeley,S10.1,2,10,anodal,408
827,acc,0,180,1,0.2764,berkeley,S10.1,1,10,anodal,409
733,acc,0,180,1,0.2764,berkeley,S10.1,2,10,anodal,410
746,spd,0,180,1,0.2764,berkeley,S10.1,2,10,anodal,411
586,acc,0,180,1,0.2764,berkeley,S10.1,1,10,anodal,412
666,spd,1,180,1,0.2764,berkeley,S10.1,1,10,anodal,413
653,spd,0,180,1,0.2764,berkeley,S10.1,2,10,anodal,414
733,acc,0,180,1,0.2764,berkeley,S10.1,2,10,anodal,415
747,spd,1,180,1,0.2764,berkeley,S10.1,1,10,anodal,416
627,acc,0,180,1,0.2764,berkeley,S10.1,2,10,anodal,417
1040,acc,1,180,1,0.2764,berkeley,S10.1,1,10,anodal,418
813,acc,1,180,1,0.2764,berkeley,S10.1,1,10,anodal,419
719,spd,0,180,1,0.2764,berkeley,S10.1,2,10,anodal,420
680,spd,1,180,1,0.2764,berkeley,S10.1,1,10,anodal,421
1106,spd,0,180,1,0.2764,berkeley,S10.1,2,10,anodal,422
653,acc,0,180,1,0.2764,berkeley,S10.1,1,10,anodal,423
627,spd,1,180,1,0.2764,berkeley,S10.1,2,10,anodal,424
720,acc,0,180,1,0.2764,berkeley,S10.1,2,10,anodal,425
427,spd,1,180,1,0.2764,berkeley,S10.1,1,10,anodal,426
640,acc,1,180,1,0.2764,berkeley,S10.1,1,10,anodal,427
1639,spd,1,180,1,0.2764,berkeley,S10.1,2,10,anodal,428
360,spd,1,180,1,0.2764,berkeley,S10.1,1,10,anodal,429
440,acc,1,180,1,0.2764,berkeley,S10.1,1,10,anodal,430
560,acc,0,180,1,0.2764,berkeley,S10.1,2,10,anodal,431
760,spd,0,180,1,0.2764,berkeley,S10.1,2,10,anodal,432
359,spd,1,180,1,0.2764,berkeley,S10.1,1,10,anodal,433
760,spd,1,180,1,0.2764,berkeley,S10.1,2,10,anodal,434
573,acc,1,180,1,0.2764,berkeley,S10.1,2,10,anodal,435
506,acc,1,180,1,0.2764,berkeley,S10.1,1,10,anodal,436
826,acc,1,180,1,0.2764,berkeley,S10.1,2,10,anodal,437
467,acc,1,180,1,0.2764,berkeley,S10.1,1,10,anodal,438
560,spd,1,180,1,0.2764,berkeley,S10.1,2,10,anodal,439
653,acc,1,180,1,0.2764,berkeley,S10.1,1,10,anodal,440
520,spd,1,180,1,0.2764,berkeley,S10.1,2,10,anodal,441
467,spd,1,180,1,0.2764,berkeley,S10.1,1,10,anodal,442
933,spd,1,180,1,0.2764,berkeley,S10.1,1,10,anodal,443
573,acc,1,180,1,0.2764,berkeley,S10.1,2,10,anodal,444
467,acc,1,180,1,0.2764,berkeley,S10.1,1,10,anodal,445
667,acc,1,180,1,0.2764,berkeley,S10.1,2,10,anodal,446
707,acc,1,180,1,0.2764,berkeley,S10.1,2,10,anodal,447
1026,acc,1,180,1,0.2764,berkeley,S10.1,1,10,anodal,448
1013,acc,1,180,1,0.2764,berkeley,S10.1,1,10,anodal,449
1013,acc,1,180,1,0.2764,berkeley,S10.1,2,10,anodal,450
1067,acc,1,180,1,0.2764,berkeley,S10.1,2,10,anodal,451
1133,acc,1,180,1,0.2764,berkeley,S10.1,1,10,anodal,452
387,spd,1,180,1,0.2764,berkeley,S10.1,2,10,anodal,453
680,acc,1,180,1,0.2764,berkeley,S10.1,1,10,anodal,454
1039,acc,1,180,1,0.2764,berkeley,S10.1,2,10,anodal,455
453,spd,1,180,1,0.2764,berkeley,S10.1,1,10,anodal,456
373,acc,1,180,1,0.2764,berkeley,S10.1,2,10,anodal,457
400,spd,0,180,1,0.2764,berkeley,S10.1,2,10,anodal,458
413,spd,1,180,1,0.2764,berkeley,S10.1,1,10,anodal,459
413,acc,1,180,1,0.2764,berkeley,S10.1,1,10,anodal,460
466,acc,0,180,1,0.2764,berkeley,S10.1,2,10,anodal,461
613,spd,1,180,1,0.2764,berkeley,S10.1,1,10,anodal,462
640,acc,0,180,1,0.2764,berkeley,S10.1,2,10,anodal,463
573,acc,1,180,1,0.2764,berkeley,S10.1,1,10,anodal,464
773,acc,0,180,1,0.2764,berkeley,S10.1,2,10,anodal,465
546,acc,1,180,1,0.2764,berkeley,S10.1,1,10,anodal,466
560,acc,0,180,1,0.2764,berkeley,S10.1,2,10,anodal,467
573,spd,1,180,1,0.2764,berkeley,S10.1,1,10,anodal,468
600,acc,0,180,1,0.2764,berkeley,S10.1,2,10,anodal,469
746,acc,1,180,1,0.2764,berkeley,S10.1,1,10,anodal,470
507,acc,1,180,1,0.2764,berkeley,S10.1,1,10,anodal,471
307,spd,0,180,1,0.2764,berkeley,S10.1,2,10,anodal,472
1226,acc,1,180,1,0.2764,berkeley,S10.1,2,10,anodal,473
1026,acc,1,180,1,0.2764,berkeley,S10.1,1,10,anodal,474
1026,spd,0,180,1,0.2764,berkeley,S10.1,1,10,anodal,475
853,acc,0,180,1,0.2764,berkeley,S10.1,2,10,anodal,476
466,spd,1,180,1,0.2764,berkeley,S10.1,1,10,anodal,477
573,spd,0,180,1,0.2764,berkeley,S10.1,2,10,anodal,478
640,acc,0,180,1,0.2764,berkeley,S10.1,2,10,anodal,479
853,acc,1,180,1,0.2764,berkeley,S10.1,1,10,anodal,480
613,spd,1,180,1,0.2764,berkeley,S10.1,1,10,anodal,481
919,acc,1,180,1,0.2764,berkeley,S10.1,1,10,anodal,482
1066,acc,0,180,1,0.2764,berkeley,S10.1,2,10,anodal,483
852,acc,0,180,1,0.2764,berkeley,S10.1,2,10,anodal,484
920,acc,0,180,1,0.2764,berkeley,S10.1,2,10,anodal,485
786,spd,1,180,1,0.2764,berkeley,S10.1,1,10,anodal,486
786,acc,0,180,1,0.2764,berkeley,S10.1,2,10,anodal,487
893,acc,1,180,1,0.2764,berkeley,S10.1,1,10,anodal,488
760,acc,0,180,1,0.2764,berkeley,S10.1,2,10,anodal,489
893,acc,0,180,1,0.2764,berkeley,S10.1,1,10,anodal,490
759,spd,1,180,1,0.2764,berkeley,S10.1,1,10,anodal,491
773,spd,0,180,1,0.2764,berkeley,S10.1,2,10,anodal,492
827,acc,0,180,1,0.2764,berkeley,S10.1,1,10,anodal,493
853,acc,0,180,1,0.2764,berkeley,S10.1,1,10,anodal,494
786,spd,0,180,1,0.2764,berkeley,S10.1,2,10,anodal,495
746,acc,0,180,1,0.2764,berkeley,S10.1,2,10,anodal,496
773,spd,1,180,1,0.2764,berkeley,S10.1,1,10,anodal,497
786,spd,1,180,1,0.2764,berkeley,S10.1,1,10,anodal,498
693,spd,0,180,1,0.2764,berkeley,S10.1,2,10,anodal,499
1160,acc,1,180,1,0.2764,berkeley,S10.1,2,10,anodal,500
1333,acc,1,180,1,0.2764,berkeley,S10.1,2,10,anodal,501
932,spd,1,180,1,0.2764,berkeley,S10.1,1,10,anodal,502
493,spd,1,180,1,0.2764,berkeley,S10.1,1,10,anodal,503
653,spd,0,180,1,0.2764,berkeley,S10.1,2,10,anodal,504
1120,acc,0,180,1,0.2764,berkeley,S10.1,2,10,anodal,505
720,acc,0,180,1,0.2764,berkeley,S10.1,2,10,anodal,506
813,acc,1,180,1,0.2764,berkeley,S10.1,1,10,anodal,507
919,spd,1,180,1,0.2764,berkeley,S10.1,1,10,anodal,508
653,acc,0,180,1,0.2764,berkeley,S10.1,2,10,anodal,509
627,spd,0,180,1,0.2764,berkeley,S10.1,2,10,anodal,510
480,spd,1,180,1,0.2764,berkeley,S10.1,1,10,anodal,511
733,spd,1,180,1,0.2764,berkeley,S10.1,1,10,anodal,512
773,acc,1,180,1,0.2764,berkeley,S10.1,1,10,anodal,513
719,acc,0,180,1,0.2764,berkeley,S10.1,2,10,anodal,514
653,spd,1,180,1,0.2764,berkeley,S10.1,1,10,anodal,515
414,spd,0,180,1,0.2764,berkeley,S10.1,2,10,anodal,516
880,acc,1,180,1,0.2764,berkeley,S10.1,1,10,anodal,517
840,spd,1,180,1,0.2764,berkeley,S10.1,2,10,anodal,518
533,acc,1,180,1,0.2764,berkeley,S10.1,1,10,anodal,519
533,acc,0,180,1,0.2764,berkeley,S10.1,2,10,anodal,520
746,spd,1,180,1,0.2764,berkeley,S10.1,2,10,anodal,521
547,spd,1,180,1,0.2764,berkeley,S10.1,1,10,anodal,522
493,spd,1,180,1,0.2764,berkeley,S10.1,1,10,anodal,523
1106,acc,1,180,1,0.2764,berkeley,S10.1,2,10,anodal,524
839,spd,1,180,1,0.2764,berkeley,S10.1,2,10,anodal,525
493,acc,1,180,1,0.2764,berkeley,S10.1,1,10,anodal,526
560,acc,0,180,1,0.2764,berkeley,S10.1,2,10,anodal,527
826,acc,0,180,1,0.2764,berkeley,S10.1,1,10,anodal,528
733,acc,0,180,1,0.2764,berkeley,S10.1,1,10,anodal,529
426,spd,1,180,1,0.2764,berkeley,S10.1,1,10,anodal,530
933,spd,1,180,1,0.2764,berkeley,S10.1,2,10,anodal,531
613,spd,1,180,1,0.2764,berkeley,S10.1,2,10,anodal,532
613,spd,1,180,1,0.2764,berkeley,S10.1,2,10,anodal,533
733,spd,1,180,1,0.2764,berkeley,S10.1,1,10,anodal,534
640,acc,1,180,1,0.2764,berkeley,S10.1,1,10,anodal,535
707,acc,0,180,1,0.2764,berkeley,S10.1,2,10,anodal,536
840,acc,0,180,1,0.2764,berkeley,S10.1,2,10,anodal,537
800,spd,0,180,1,0.2764,berkeley,S10.1,1,10,anodal,538
853,acc,1,180,1,0.2764,berkeley,S10.1,2,10,anodal,539
973,acc,1,180,1,0.2764,berkeley,S10.1,1,10,anodal,540
960,acc,1,180,1,0.2764,berkeley,S10.1,2,10,anodal,541
547,spd,1,180,1,0.2764,berkeley,S10.1,1,10,anodal,542
680,acc,0,180,1,0.2764,berkeley,S10.1,2,10,anodal,543
826,acc,0,180,1,0.2764,berkeley,S10.1,1,10,anodal,544
560,acc,0,180,1,0.2764,berkeley,S10.1,2,10,anodal,545
653,acc,0,180,1,0.2764,berkeley,S10.1,1,10,anodal,546
640,spd,1,180,1,0.2764,berkeley,S10.1,1,10,anodal,547
667,acc,0,180,1,0.2764,berkeley,S10.1,2,10,anodal,548
600,acc,0,180,1,0.2764,berkeley,S10.1,2,10,anodal,549
746,spd,1,180,1,0.2764,berkeley,S10.1,1,10,anodal,550
640,acc,1,180,1,0.2764,berkeley,S10.1,2,10,anodal,551
413,spd,1,180,1,0.2764,berkeley,S10.1,1,10,anodal,552
587,spd,0,180,1,0.2764,berkeley,S10.1,2,10,anodal,553
720,spd,0,180,1,0.2764,berkeley,S10.1,1,10,anodal,554
840,acc,0,180,1,0.2764,berkeley,S10.1,1,10,anodal,555
852,spd,0,180,1,0.2764,berkeley,S10.1,2,10,anodal,556
466,acc,1,180,1,0.2764,berkeley,S10.1,1,10,anodal,557
586,spd,0,180,1,0.2764,berkeley,S10.1,2,10,anodal,558
879,acc,0,180,1,0.2764,berkeley,S10.1,2,10,anodal,559
960,spd,0,180,1,0.2764,berkeley,S10.1,1,10,anodal,560
920,acc,1,180,1,0.2764,berkeley,S10.1,2,10,anodal,561
1160,acc,1,180,1,0.2764,berkeley,S10.1,2,10,anodal,562
720,spd,1,180,1,0.2764,berkeley,S10.1,1,10,anodal,563
853,acc,0,180,1,0.2764,berkeley,S10.1,1,10,anodal,564
1279,acc,1,180,1,0.2764,berkeley,S10.1,2,10,anodal,565
1106,acc,1,180,1,0.2764,berkeley,S10.1,1,10,anodal,566
1240,acc,1,180,1,0.2764,berkeley,S10.1,1,10,anodal,567
1027,acc,1,180,1,0.2764,berkeley,S10.1,2,10,anodal,568
560,spd,0,180,1,0.2764,berkeley,S10.1,2,10,anodal,569
907,spd,1,180,1,0.2764,berkeley,S10.1,1,10,anodal,570
933,acc,1,180,1,0.2764,berkeley,S10.1,2,10,anodal,571
613,spd,1,180,1,0.2764,berkeley,S10.1,1,10,anodal,572
746,spd,1,180,1,0.2764,berkeley,S10.1,2,10,anodal,573
973,acc,1,180,1,0.2764,berkeley,S10.1,1,10,anodal,574
1147,acc,1,180,1,0.2764,berkeley,S10.1,1,10,anodal,575
880,acc,1,180,1,0.2764,berkeley,S10.1,2,10,anodal,576
533,spd,1,180,1,0.2764,berkeley,S10.1,2,10,anodal,577
466,spd,1,180,1,0.2764,berkeley,S10.1,1,10,anodal,578
1386,acc,1,180,1,0.2764,berkeley,S10.1,1,10,anodal,579
613,spd,1,180,1,0.2764,berkeley,S10.1,2,10,anodal,580
640,spd,1,180,1,0.2764,berkeley,S10.1,1,10,anodal,581
1599,acc,1,180,1,0.2764,berkeley,S10.1,2,10,anodal,582
586,acc,1,180,1,0.2764,berkeley,S10.1,2,10,anodal,583
706,spd,1,180,1,0.2764,berkeley,S10.1,1,10,anodal,584
746,spd,1,180,1,0.2764,berkeley,S10.1,2,10,anodal,585
506,acc,0,180,1,0.2764,berkeley,S10.1,1,10,anodal,586
1146,acc,1,180,1,0.2764,berkeley,S10.1,2,10,anodal,587
946,acc,1,180,1,0.2764,berkeley,S10.1,1,10,anodal,588
506,spd,1,180,1,0.2764,berkeley,S10.1,1,10,anodal,589
466,acc,1,180,1,0.2764,berkeley,S10.1,2,10,anodal,590
613,acc,0,180,1,0.2764,berkeley,S10.1,2,10,anodal,591
1000,acc,0,180,1,0.2764,berkeley,S10.1,1,10,anodal,592
853,acc,0,180,1,0.2764,berkeley,S10.1,2,10,anodal,593
786,spd,0,180,1,0.2764,berkeley,S10.1,2,10,anodal,594
813,acc,1,180,1,0.2764,berkeley,S10.1,1,10,anodal,595
480,spd,0,180,1,0.2764,berkeley,S10.1,1,10,anodal,596
719,acc,0,180,1,0.2764,berkeley,S10.1,1,10,anodal,597
480,spd,0,180,1,0.2764,berkeley,S10.1,2,10,anodal,598
866,acc,0,180,1,0.2764,berkeley,S10.1,1,10,anodal,599
533,spd,0,180,1,0.2764,berkeley,S10.1,2,10,anodal,600
493,acc,1,180,2,0.2764,berkeley,S10.2,2,10,sham,1
520,acc,1,180,2,0.2764,berkeley,S10.2,1,10,sham,2
840,acc,0,180,2,0.2764,berkeley,S10.2,1,10,sham,3
707,acc,1,180,2,0.2764,berkeley,S10.2,2,10,sham,4
1040,spd,1,180,2,0.2764,berkeley,S10.2,1,10,sham,5
893,spd,1,180,2,0.2764,berkeley,S10.2,2,10,sham,6
679,spd,1,180,2,0.2764,berkeley,S10.2,2,10,sham,7
999,spd,1,180,2,0.2764,berkeley,S10.2,1,10,sham,8
426,spd,1,180,2,0.2764,berkeley,S10.2,2,10,sham,9
600,spd,0,180,2,0.2764,berkeley,S10.2,1,10,sham,10
560,spd,1,180,2,0.2764,berkeley,S10.2,2,10,sham,11
533,acc,1,180,2,0.2764,berkeley,S10.2,1,10,sham,12
373,spd,0,180,2,0.2764,berkeley,S10.2,1,10,sham,13
346,spd,0,180,2,0.2764,berkeley,S10.2,2,10,sham,14
346,acc,1,180,2,0.2764,berkeley,S10.2,2,10,sham,15
346,spd,1,180,2,0.2764,berkeley,S10.2,1,10,sham,16
333,spd,1,180,2,0.2764,berkeley,S10.2,2,10,sham,17
919,acc,1,180,2,0.2764,berkeley,S10.2,2,10,sham,18
799,acc,1,180,2,0.2764,berkeley,S10.2,1,10,sham,19
759,acc,1,180,2,0.2764,berkeley,S10.2,1,10,sham,20
600,spd,0,180,2,0.2764,berkeley,S10.2,1,10,sham,21
440,spd,1,180,2,0.2764,berkeley,S10.2,1,10,sham,22
1079,acc,1,180,2,0.2764,berkeley,S10.2,2,10,sham,23
639,spd,0,180,2,0.2764,berkeley,S10.2,2,10,sham,24
466,acc,0,180,2,0.2764,berkeley,S10.2,1,10,sham,25
466,spd,1,180,2,0.2764,berkeley,S10.2,1,10,sham,26
373,spd,1,180,2,0.2764,berkeley,S10.2,2,10,sham,27
414,spd,0,180,2,0.2764,berkeley,S10.2,2,10,sham,28
920,acc,1,180,2,0.2764,berkeley,S10.2,1,10,sham,29
427,spd,0,180,2,0.2764,berkeley,S10.2,1,10,sham,30
1093,acc,1,180,2,0.2764,berkeley,S10.2,2,10,sham,31
506,spd,1,180,2,0.2764,berkeley,S10.2,2,10,sham,32
426,spd,1,180,2,0.2764,berkeley,S10.2,1,10,sham,33
1119,acc,1,180,2,0.2764,berkeley,S10.2,1,10,sham,34
626,spd,1,180,2,0.2764,berkeley,S10.2,2,10,sham,35
467,spd,1,180,2,0.2764,berkeley,S10.2,2,10,sham,36
1000,acc,1,180,2,0.2764,berkeley,S10.2,1,10,sham,37
1213,acc,1,180,2,0.2764,berkeley,S10.2,2,10,sham,38
546,acc,1,180,2,0.2764,berkeley,S10.2,1,10,sham,39
493,acc,1,180,2,0.2764,berkeley,S10.2,2,10,sham,40
867,spd,1,180,2,0.2764,berkeley,S10.2,2,10,sham,41
387,acc,1,180,2,0.2764,berkeley,S10.2,1,10,sham,42
1226,acc,1,180,2,0.2764,berkeley,S10.2,2,10,sham,43
466,acc,1,180,2,0.2764,berkeley,S10.2,1,10,sham,44
506,spd,0,180,2,0.2764,berkeley,S10.2,1,10,sham,45
946,acc,1,180,2,0.2764,berkeley,S10.2,2,10,sham,46
1160,acc,1,180,2,0.2764,berkeley,S10.2,1,10,sham,47
893,acc,1,180,2,0.2764,berkeley,S10.2,2,10,sham,48
373,spd,0,180,2,0.2764,berkeley,S10.2,2,10,sham,49
786,spd,1,180,2,0.2764,berkeley,S10.2,1,10,sham,50
933,spd,1,180,2,0.2764,berkeley,S10.2,1,10,sham,51
1013,acc,1,180,2,0.2764,berkeley,S10.2,2,10,sham,52
1520,acc,1,180,2,0.2764,berkeley,S10.2,2,10,sham,53
493,spd,1,180,2,0.2764,berkeley,S10.2,1,10,sham,54
613,spd,1,180,2,0.2764,berkeley,S10.2,2,10,sham,55
1266,acc,1,180,2,0.2764,berkeley,S10.2,1,10,sham,56
600,spd,0,180,2,0.2764,berkeley,S10.2,1,10,sham,57
480,acc,0,180,2,0.2764,berkeley,S10.2,2,10,sham,58
573,acc,1,180,2,0.2764,berkeley,S10.2,2,10,sham,59
986,spd,1,180,2,0.2764,berkeley,S10.2,1,10,sham,60
666,spd,1,180,2,0.2764,berkeley,S10.2,1,10,sham,61
546,spd,1,180,2,0.2764,berkeley,S10.2,2,10,sham,62
679,spd,1,180,2,0.2764,berkeley,S10.2,2,10,sham,63
679,spd,1,180,2,0.2764,berkeley,S10.2,1,10,sham,64
546,spd,1,180,2,0.2764,berkeley,S10.2,1,10,sham,65
1039,acc,1,180,2,0.2764,berkeley,S10.2,2,10,sham,66
1039,acc,1,180,2,0.2764,berkeley,S10.2,1,10,sham,67
853,spd,1,180,2,0.2764,berkeley,S10.2,2,10,sham,68
440,acc,1,180,2,0.2764,berkeley,S10.2,2,10,sham,69
493,spd,1,180,2,0.2764,berkeley,S10.2,1,10,sham,70
440,spd,0,180,2,0.2764,berkeley,S10.2,1,10,sham,71
346,spd,0,180,2,0.2764,berkeley,S10.2,2,10,sham,72
493,spd,1,180,2,0.2764,berkeley,S10.2,2,10,sham,73
573,spd,1,180,2,0.2764,berkeley,S10.2,1,10,sham,74
1026,acc,1,180,2,0.2764,berkeley,S10.2,1,10,sham,75
360,spd,1,180,2,0.2764,berkeley,S10.2,2,10,sham,76
440,spd,1,180,2,0.2764,berkeley,S10.2,2,10,sham,77
1106,acc,1,180,2,0.2764,berkeley,S10.2,2,10,sham,78
480,spd,1,180,2,0.2764,berkeley,S10.2,1,10,sham,79
413,spd,1,180,2,0.2764,berkeley,S10.2,1,10,sham,80
440,spd,0,180,2,0.2764,berkeley,S10.2,1,10,sham,81
533,spd,1,180,2,0.2764,berkeley,S10.2,2,10,sham,82
546,acc,1,180,2,0.2764,berkeley,S10.2,1,10,sham,83
1119,acc,1,180,2,0.2764,berkeley,S10.2,2,10,sham,84
400,spd,1,180,2,0.2764,berkeley,S10.2,1,10,sham,85
933,acc,1,180,2,0.2764,berkeley,S10.2,1,10,sham,86
399,acc,1,180,2,0.2764,berkeley,S10.2,2,10,sham,87
1039,acc,1,180,2,0.2764,berkeley,S10.2,2,10,sham,88
840,acc,1,180,2,0.2764,berkeley,S10.2,1,10,sham,89
1093,acc,1,180,2,0.2764,berkeley,S10.2,2,10,sham,90
919,acc,1,180,2,0.2764,berkeley,S10.2,1,10,sham,91
1279,acc,1,180,2,0.2764,berkeley,S10.2,2,10,sham,92
559,spd,1,180,2,0.2764,berkeley,S10.2,1,10,sham,93
1066,spd,0,180,2,0.2764,berkeley,S10.2,1,10,sham,94
812,acc,1,180,2,0.2764,berkeley,S10.2,2,10,sham,95
533,spd,1,180,2,0.2764,berkeley,S10.2,2,10,sham,96
453,spd,1,180,2,0.2764,berkeley,S10.2,1,10,sham,97
427,acc,1,180,2,0.2764,berkeley,S10.2,2,10,sham,98
613,spd,1,180,2,0.2764,berkeley,S10.2,1,10,sham,99
426,acc,1,180,2,0.2764,berkeley,S10.2,2,10,sham,100
1013,acc,1,180,2,0.2764,berkeley,S10.2,2,10,sham,101
507,spd,1,180,2,0.2764,berkeley,S10.2,1,10,sham,102
773,spd,1,180,2,0.2764,berkeley,S10.2,2,10,sham,103
453,spd,1,180,2,0.2764,berkeley,S10.2,1,10,sham,104
1186,acc,1,180,2,0.2764,berkeley,S10.2,2,10,sham,105
386,spd,1,180,2,0.2764,berkeley,S10.2,1,10,sham,106
586,spd,1,180,2,0.2764,berkeley,S10.2,1,10,sham,107
520,spd,1,180,2,0.2764,berkeley,S10.2,2,10,sham,108
507,spd,1,180,2,0.2764,berkeley,S10.2,2,10,sham,109
560,spd,1,180,2,0.2764,berkeley,S10.2,2,10,sham,110
600,spd,1,180,2,0.2764,berkeley,S10.2,1,10,sham,111
1026,acc,1,180,2,0.2764,berkeley,S10.2,1,10,sham,112
533,spd,1,180,2,0.2764,berkeley,S10.2,2,10,sham,113
1226,acc,1,180,2,0.2764,berkeley,S10.2,2,10,sham,114
1146,acc,1,180,2,0.2764,berkeley,S10.2,1,10,sham,115
1373,acc,1,180,2,0.2764,berkeley,S10.2,1,10,sham,116
1373,acc,1,180,2,0.2764,berkeley,S10.2,1,10,sham,117
479,spd,1,180,2,0.2764,berkeley,S10.2,2,10,sham,118
1373,acc,1,180,2,0.2764,berkeley,S10.2,2,10,sham,119
493,spd,1,180,2,0.2764,berkeley,S10.2,1,10,sham,120
1119,acc,1,180,2,0.2764,berkeley,S10.2,2,10,sham,121
973,acc,1,180,2,0.2764,berkeley,S10.2,1,10,sham,122
560,spd,1,180,2,0.2764,berkeley,S10.2,2,10,sham,123
986,acc,1,180,2,0.2764,berkeley,S10.2,1,10,sham,124
1506,acc,1,180,2,0.2764,berkeley,S10.2,2,10,sham,125
839,spd,1,180,2,0.2764,berkeley,S10.2,1,10,sham,126
413,spd,1,180,2,0.2764,berkeley,S10.2,1,10,sham,127
